Time,PosX,PosY,PosZ,VelX,VelY,VelZ,AccX,AccY,AccZ,AccGX,AccGY,AccGZ,Roll,Pitch,Yaw,GyroX,GyroY,GyroZ,AngularAccX,AngularAccY,AngularAccZ,YTVC,ZTVC,PitchSetpoint,YawSetpoint,Apogee
0.0,0.00065,-0.00029,-0.00015,0.06544,-0.02883,-0.01453,16.66667,0.0,0.0,6.544,-2.88312,-1.45259,0.0,4.99366,-10.0,0.0,0.0,0.0,0.0,0.0,0.0,-0.0,-0.0,-0.0,0.0,1.0
0.01,0.00196,-0.00086,-0.00044,0.13088,-0.05765,-0.02904,16.66667,0.0,0.0,6.5443,-2.88203,-1.45147,0.00034,4.98979,-9.99611,0.0,-0.38793,0.38793,0.0,-38.7931,38.7931,0.45,-0.45,-0.14671,0.2912,1.0
0.02,0.00393,-0.00173,-0.00087,0.19633,-0.08644,-0.04352,16.66667,0.0,0.0,6.54517,-2.87874,-1.4481,0.00136,4.9782,-9.98442,0.0,-1.16379,1.16379,0.0,-77.58621,77.58621,0.9,-0.9,-0.29476,0.58516,1.0
0.03,0.00654,-0.00288,-0.00145,0.2618,-0.11516,-0.05794,16.66667,0.0,0.0,6.54693,-2.87218,-1.44135,0.00338,4.95501,-9.96106,0.0,-2.32759,2.32759,0.0,-116.37931,116.37931,1.35,-1.35,-0.44393,0.88168,1.0
0.04,0.00982,-0.00432,-0.00217,0.3273,-0.14377,-0.07224,16.66667,0.0,0.0,6.54983,-2.86123,-1.43011,0.00673,4.91636,-9.92213,0.0,-3.87931,3.87931,0.0,-155.17241,155.17241,1.8,-1.8,-0.59385,1.18042,1.0
0.05,0.01375,-0.00604,-0.00304,0.39284,-0.17222,-0.08637,16.66667,0.0,0.0,6.55416,-2.84481,-1.41324,0.01172,4.85837,-9.86373,0.0,-5.81897,5.81897,0.0,-193.96552,193.96552,2.25,-2.25,-0.74409,1.48092,1.0
0.06,0.01833,-0.00805,-0.00404,0.45844,-0.20044,-0.10027,16.66667,0.0,0.0,6.5601,-2.82179,-1.39048,0.01859,4.78012,-9.782,0.0,-7.85065,8.14655,0.0,-203.16832,232.75862,2.35675,-2.7,-0.89405,1.78262,1.0
0.07,0.02357,-0.01033,-0.00518,0.52412,-0.22835,-0.1139,16.66667,0.0,0.0,6.56773,-2.79105,-1.3623,0.02759,4.68326,-9.67305,0.0,-9.71478,10.86207,0.0,-186.41276,271.55172,2.16239,-3.15,-1.04312,2.08484,1.0
0.08,0.02947,-0.01289,-0.00645,0.58989,-0.25586,-0.12719,16.66667,0.0,0.0,6.57715,-2.75147,-1.32918,0.0389,4.56939,-9.533,0.0,-11.41626,13.96552,0.0,-170.14869,310.34483,1.97372,-3.6,-1.19074,2.38678,1.0
0.09,0.03603,-0.01572,-0.00785,0.65578,-0.28288,-0.1401,16.66667,0.0,0.0,6.58841,-2.70189,-1.29156,0.05266,4.44005,-9.35799,0.0,-12.96018,17.4569,0.0,-154.39134,349.13793,1.79094,-4.05,-1.33638,2.68751,1.0
0.1,0.04325,-0.01881,-0.00938,0.72179,-0.3093,-0.1526,16.66667,0.0,0.0,6.60146,-2.64163,-1.24987,0.06884,4.29673,-9.1457,0.0,-14.35172,21.18292,0.0,-139.1545,372.60217,1.61419,-4.32219,-1.47955,2.98599,1.0
0.11,0.05113,-0.02216,-0.01102,0.78795,-0.33502,-0.16465,16.66667,0.0,0.0,6.61596,-2.57161,-1.20452,0.08697,4.14085,-8.89948,0.0,-15.59623,24.57638,0.0,-124.45132,339.34616,1.44364,-3.93642,-1.61979,3.28109,1.0
0.12,0.05967,-0.02576,-0.01279,0.85427,-0.35994,-0.17621,16.66667,0.0,0.0,6.63161,-2.49273,-1.15594,0.10658,3.97382,-8.62258,0.0,-16.69919,27.64895,0.0,-110.29586,307.25706,1.27943,-3.56418,-1.75671,3.57175,1.0
0.13,0.06888,-0.0296,-0.01466,0.92075,-0.384,-0.18725,16.66667,0.0,0.0,6.64808,-2.40585,-1.10448,0.12723,3.79694,-8.31811,0.0,-17.6662,30.41243,0.0,-96.70092,276.34837,1.12173,-3.20564,-1.88993,3.85702,1.0
0.14,0.07875,-0.03367,-0.01664,0.9874,-0.40712,-0.19776,16.66667,0.0,0.0,6.66509,-2.3118,-1.05054,0.1485,3.61151,-7.98908,0.0,-18.50297,32.87873,0.0,-83.67688,246.62924,0.97065,-2.8609,-2.0191,4.136,1.0
0.15,0.08929,-0.03796,-0.01871,1.05422,-0.42923,-0.2077,16.66667,0.0,0.0,6.68235,-2.21138,-0.99447,0.17002,3.41875,-7.63836,0.0,-19.21529,35.05978,0.0,-71.23166,218.10502,0.82629,-2.53002,-2.14393,4.40789,1.0
0.16,0.1005,-0.04247,-0.02088,1.12122,-0.45029,-0.21707,16.66667,0.0,0.0,6.6996,-2.10538,-0.93661,0.19143,3.21982,-7.26869,0.0,-19.80899,36.96755,0.0,-59.37068,190.77763,0.6887,-2.21302,-2.26415,4.67195,1.0
0.17,0.11239,-0.04717,-0.02314,1.18839,-0.47023,-0.22584,16.66667,0.0,0.0,6.71662,-1.99451,-0.87728,0.21244,3.01587,-6.8827,0.0,-20.28996,38.61401,0.0,-48.09688,164.646,0.55792,-1.90989,-2.37951,4.92752,1.0
0.18,0.12495,-0.05206,-0.02548,1.25572,-0.48903,-0.23401,16.66667,0.0,0.0,6.7332,-1.87951,-0.8168,0.23276,2.80794,-6.48287,0.0,-20.66407,40.01108,0.0,-37.4108,139.70637,0.43397,-1.62059,-2.48983,5.17399,1.0
0.19,0.13818,-0.05712,-0.0279,1.32321,-0.50664,-0.24156,16.66667,0.0,0.0,6.74914,-1.76104,-0.75545,0.25216,2.59706,-6.0716,0.0,-20.93718,41.1706,0.0,-27.31065,115.95251,0.3168,-1.34505,-2.59491,5.41085,1.0
0.2,0.15209,-0.06235,-0.03038,1.39085,-0.52304,-0.2485,16.66667,0.0,0.0,6.7643,-1.63976,-0.69353,0.27043,2.3842,-5.65113,0.0,-21.1151,42.10436,0.0,-17.79245,93.37598,0.20639,-1.08316,-2.69461,5.63762,1.0
0.21,0.16667,-0.06774,-0.03293,1.45864,-0.5382,-0.25481,16.66667,0.0,0.0,6.77854,-1.51629,-0.6313,0.28743,2.17025,-5.22359,0.0,-21.2036,42.82402,0.0,-8.85014,71.96624,0.10266,-0.83481,-2.78881,5.85389,1.0
0.22,0.18194,-0.07326,-0.03554,1.52655,-0.55211,-0.2605,16.66667,0.0,0.0,6.79175,-1.39121,-0.569,0.303,1.95607,-4.79099,0.0,-21.20836,43.34113,0.0,-0.47574,51.71085,0.00552,-0.59985,-2.87742,6.05934,1.0
0.23,0.19788,-0.07891,-0.03819,1.59459,-0.56476,-0.26557,16.66667,0.0,0.0,6.80385,-1.26508,-0.50686,0.31707,1.74247,-4.35525,0.0,-21.13496,43.66709,0.0,7.34045,32.59551,-0.08515,-0.37811,-2.96037,6.25367,1.0
0.24,0.21451,-0.08467,-0.04089,1.66274,-0.57615,-0.27002,16.66667,0.0,0.0,6.81478,-1.13844,-0.44512,0.32955,1.5302,-3.91813,0.0,-20.98886,43.81313,0.0,14.60974,14.60422,-0.16947,-0.16941,-3.03762,6.43666,1.0
0.25,0.23182,-0.09053,-0.04363,1.73099,-0.58626,-0.27386,16.66667,0.0,0.0,6.8245,-1.01178,-0.38396,0.34042,1.31995,-3.48131,0.0,-20.77541,43.79032,0.0,21.34479,-2.28072,-0.2476,0.02646,-3.10913,6.60812,1.0
0.26,0.24981,-0.09648,-0.0464,1.79932,-0.59512,-0.2771,16.66667,0.0,0.0,6.83298,-0.88557,-0.32358,0.34965,1.11238,-3.04636,0.0,-20.49982,43.60954,0.0,27.55949,-18.07858,-0.31969,0.20971,-3.17491,6.76792,1.0
0.27,0.26849,-0.10251,-0.0492,1.86772,-0.60272,-0.27974,16.66667,0.0,0.0,6.84022,-0.76023,-0.26415,0.35726,0.90807,-2.61473,0.0,-20.16713,43.28144,0.0,33.26877,-32.81015,-0.38592,0.3806,-3.23498,6.91599,1.0
0.28,0.28785,-0.1086,-0.05202,1.93618,-0.60908,-0.2818,16.66667,0.0,0.0,6.84625,-0.63619,-0.20583,0.36328,0.70758,-2.18778,0.0,-19.78225,42.81646,0.0,38.4884,-46.49769,-0.44647,0.53937,-3.28937,7.05229,1.0
0.29,0.3079,-0.11474,-0.05485,2.00469,-0.61422,-0.28328,16.66667,0.0,0.0,6.85108,-0.51382,-0.14876,0.36776,0.5114,-1.76675,0.0,-19.3499,42.22481,0.0,43.23487,-59.16488,-0.50152,0.68631,-3.33813,7.17681,1.0
0.3,0.32863,-0.12092,-0.05769,2.07324,-0.61816,-0.28422,16.66667,0.0,0.0,6.85476,-0.39347,-0.09308,0.37076,0.31999,-1.3528,0.0,-18.87464,41.51644,0.0,47.52522,-70.83668,-0.55129,0.82171,-3.38134,7.28962,1.0
0.31,0.35005,-0.12713,-0.06054,2.14181,-0.62091,-0.2846,16.66667,0.0,0.0,6.85734,-0.27545,-0.0389,0.37237,0.13374,-0.94698,0.0,-18.36088,40.70105,0.0,51.37688,-81.53933,-0.59597,0.94586,-3.41906,7.39078,1.0
0.32,0.37215,-0.13336,-0.06338,2.2104,-0.62251,-0.28447,16.66667,0.0,0.0,6.85889,-0.16006,0.01366,0.37267,-0.04697,-0.55027,0.0,-17.8128,39.78805,0.0,54.80757,-91.30023,-0.63577,1.05908,-3.45142,7.48042,1.0
0.33,0.39494,-0.13959,-0.06622,2.279,-0.62299,-0.28382,16.66667,0.0,0.0,6.85947,-0.04757,0.06453,0.37176,-0.22183,-0.16353,0.0,-17.23445,38.78657,0.0,57.83516,-100.14786,-0.67089,1.16172,-3.4785,7.55868,1.0
0.34,0.41842,-0.14581,-0.06905,2.34759,-0.62237,-0.28269,16.66667,0.0,0.0,6.85916,0.0618,0.11361,0.36975,-0.39056,0.21244,0.0,-16.62967,37.70545,0.0,60.47759,-108.11165,-0.70154,1.2541,-3.50043,7.62573,1.0
0.35,0.44258,-0.15202,-0.07186,2.41617,-0.62069,-0.28108,16.66667,0.0,0.0,6.85805,0.16782,0.16084,0.36675,-0.55292,0.57695,0.0,-16.00214,36.55323,0.0,62.75274,-115.22192,-0.72793,1.33657,-3.51733,7.68179,1.0
0.36,0.46743,-0.1582,-0.07465,2.48473,-0.61799,-0.27902,16.66667,0.0,0.0,6.8562,0.27031,0.20616,0.36287,-0.70871,0.92937,0.0,-15.35536,35.33814,0.0,64.67842,-121.50977,-0.75027,1.40951,-3.52936,7.72708,1.0
0.37,0.49296,-0.16434,-0.07741,2.55327,-0.6143,-0.27652,16.66667,0.0,0.0,6.85371,0.36911,0.24951,0.35823,-0.85777,1.26915,0.0,-14.69264,34.06807,0.0,66.2722,-127.00692,-0.76876,1.47328,-3.53664,7.76184,1.0
0.38,0.51918,-0.17044,-0.08015,2.62177,-0.60966,-0.27361,16.66667,0.0,0.0,6.85067,0.46408,0.29087,0.35293,-0.99995,1.59582,0.0,-14.01712,32.75061,0.0,67.55146,-131.74564,-0.7836,1.52825,-3.53934,7.78636,1.0
0.39,0.54608,-0.17648,-0.08285,2.69025,-0.6041,-0.27031,16.66667,0.0,0.0,6.84715,0.55509,0.3302,0.34709,-1.13516,1.90899,0.0,-13.33179,31.39302,0.0,68.53326,-135.75862,-0.79499,1.5748,-3.53762,7.80092,1.0
0.4,0.57367,-0.18245,-0.08552,2.75868,-0.59768,-0.26664,16.66667,0.0,0.0,6.84324,0.64206,0.36749,0.34083,-1.26333,2.20831,0.0,-12.63945,30.00224,0.0,69.23435,-139.07883,-0.80312,1.61331,-3.53163,7.80582,1.0
0.41,0.60194,-0.18836,-0.08814,2.82707,-0.59044,-0.26261,16.66667,0.0,0.0,6.83902,0.7249,0.40271,0.33424,-1.3844,2.49353,0.0,-11.94274,28.58484,0.0,69.67112,-141.73944,-0.80819,1.64418,-3.52154,7.80138,1.0
0.42,0.63089,-0.19418,-0.09073,2.89541,-0.5824,-0.25825,16.66667,0.0,0.0,6.83458,0.80355,0.43586,0.32742,-1.49837,2.76443,0.0,-11.24414,27.1471,0.0,69.85958,-143.77367,-0.81037,1.66777,-3.50753,7.78794,1.0
0.43,0.66053,-0.19992,-0.09326,2.96371,-0.57362,-0.25358,16.66667,0.0,0.0,6.82997,0.87798,0.46695,0.32048,-1.60525,3.02087,0.0,-10.54599,25.69496,0.0,69.81534,-145.21469,-0.80986,1.68449,-3.48977,7.76582,1.0
0.44,0.69085,-0.20556,-0.09575,3.03197,-0.56414,-0.24862,16.66667,0.0,0.0,6.82528,0.94817,0.49598,0.31349,-1.70505,3.26277,0.0,-9.85045,24.234,0.0,69.55358,-146.09552,-0.80682,1.69471,-3.46844,7.73539,1.0
0.45,0.72185,-0.2111,-0.09818,3.10017,-0.554,-0.24339,16.66667,0.0,0.0,6.82056,1.01409,0.52297,0.30654,-1.79783,3.49007,0.0,-9.15956,22.76951,0.0,69.08909,-146.4489,-0.80143,1.69881,-3.4437,7.69698,1.0
0.46,0.75354,-0.21653,-0.10056,3.16833,-0.54324,-0.23791,16.66667,0.0,0.0,6.81588,1.07577,0.54794,0.29971,-1.88366,3.70279,0.0,-8.4752,21.30644,0.0,68.43621,-146.30722,-0.79386,1.69716,-3.41574,7.65097,1.0
0.47,0.7859,-0.22185,-0.10288,3.23644,-0.53191,-0.2322,16.66667,0.0,0.0,6.81129,1.13321,0.57091,0.29306,-1.96264,3.90099,0.0,-7.79911,19.84942,0.0,67.60885,-145.70241,-0.78426,1.69015,-3.38474,7.59772,1.0
0.48,0.81895,-0.22705,-0.10515,3.30451,-0.52004,-0.22628,16.66667,0.0,0.0,6.80684,1.18645,0.59191,0.28664,-2.03485,4.08477,0.0,-7.13291,18.40276,0.0,66.62049,-144.66588,-0.7728,1.67812,-3.35087,7.53759,1.0
0.49,0.85267,-0.23213,-0.10735,3.37254,-0.50769,-0.22017,16.66667,0.0,0.0,6.80257,1.23555,0.61099,0.28053,-2.10043,4.25426,0.0,-6.47806,16.97047,0.0,65.48418,-143.22839,-0.75962,1.66145,-3.31431,7.47095,1.0
0.5,0.88708,-0.23708,-0.10949,3.44052,-0.49488,-0.21389,16.66667,0.0,0.0,6.79852,1.28054,0.62817,0.27475,-2.1595,4.40965,0.0,-5.83594,15.55627,0.0,64.21253,-141.42005,-0.74487,1.64047,-3.27523,7.39816,1.0
0.51,0.92216,-0.24189,-0.11156,3.50847,-0.48167,-0.20746,16.66667,0.0,0.0,6.79473,1.32149,0.64351,0.26935,-2.21221,4.55114,0.0,-5.20776,14.16357,0.0,62.81772,-139.27017,-0.72869,1.61553,-3.2338,7.3196,1.0
0.52,0.95792,-0.24658,-0.11357,3.57638,-0.46808,-0.20089,16.66667,0.0,0.0,6.79121,1.35849,0.65703,0.26437,-2.25872,4.67897,0.0,-4.59465,12.7955,0.0,61.3115,-136.80731,-0.71121,1.58696,-3.19019,7.23562,1.0
0.53,0.99437,-0.25112,-0.11551,3.64426,-0.45417,-0.1942,16.66667,0.0,0.0,6.788,1.3916,0.66881,0.25981,-2.29919,4.79343,0.0,-3.99759,11.45491,0.0,59.70521,-134.05914,-0.69258,1.55509,-3.14458,7.14658,1.0
0.54,1.03149,-0.25552,-0.11739,3.71211,-0.43996,-0.18741,16.66667,0.0,0.0,6.7851,1.42093,0.67887,0.25572,-2.33379,4.8948,0.0,-3.4175,10.14438,0.0,58.00974,-131.05244,-0.67291,1.52021,-3.09712,7.05283,1.03
0.55,1.06929,-0.25977,-0.11919,3.77994,-0.42549,-0.18054,16.66667,0.0,0.0,6.78254,1.44656,0.68728,0.25208,-2.36271,4.98341,0.0,-2.85514,8.86625,0.0,56.23557,-127.81307,-0.65233,1.48263,-3.04797,6.95473,1.07
0.56,1.10777,-0.26388,-0.12093,3.84774,-0.41081,-0.1736,16.66667,0.0,0.0,6.78032,1.46859,0.6941,0.24893,-2.38613,5.0596,0.0,-2.31121,7.62259,0.0,54.39277,-124.36594,-0.63096,1.44264,-2.9973,6.85263,1.11
0.57,1.14692,-0.26784,-0.12259,3.91553,-0.39593,-0.1666,16.66667,0.0,0.0,6.77845,1.48713,0.69937,0.24625,-2.40426,5.12373,0.0,-1.7863,6.41524,0.0,52.49099,-120.73495,-0.6089,1.40053,-2.94525,6.74685,1.15
0.58,1.18675,-0.27165,-0.12419,3.9833,-0.38091,-0.15957,16.66667,0.0,0.0,6.77692,1.5023,0.70316,0.24404,-2.41728,5.17618,0.0,-1.28091,5.24581,0.0,50.53945,-116.94306,-0.58626,1.35654,-2.89197,6.63773,1.19
0.59,1.22726,-0.27531,-0.12572,4.05105,-0.36577,-0.15252,16.66667,0.0,0.0,6.77574,1.51421,0.70552,0.2423,-2.4254,5.21734,0.0,-0.79544,4.11569,0.0,48.54697,-113.01218,-0.56314,1.31094,-2.83761,6.52559,1.23
0.6,1.26845,-0.27881,-0.12717,4.1188,-0.35054,-0.14545,16.66667,0.0,0.0,6.77489,1.52296,0.70652,0.24102,-2.42883,5.24761,0.0,-0.33022,3.02606,0.0,46.52197,-108.96324,-0.53965,1.26397,-2.78231,6.41075,1.27
0.61,1.31032,-0.28216,-0.12855,4.18655,-0.33525,-0.13839,16.66667,0.0,0.0,6.77438,1.5287,0.70621,0.24018,-2.42777,5.26741,0.0,0.11451,1.9779,0.0,44.47245,-104.81617,-0.51588,1.21587,-2.7262,6.2935,1.31
0.62,1.35286,-0.28536,-0.12987,4.25429,-0.31994,-0.13134,16.66667,0.0,0.0,6.77418,1.53152,0.70465,0.23976,-2.42243,5.27716,0.0,0.53857,0.972,0.0,42.40601,-100.58987,-0.49191,1.16684,-2.66942,6.17416,1.35
0.63,1.39608,-0.28841,-0.13111,4.32203,-0.30462,-0.12432,16.66667,0.0,0.0,6.7743,1.53157,0.70192,0.23976,-2.41302,5.27729,0.0,0.94186,0.00898,0.0,40.32985,-96.30227,-0.46783,1.11711,-2.61209,6.053,1.4
0.64,1.43998,-0.2913,-0.13228,4.38978,-0.28933,-0.11734,16.66667,0.0,0.0,6.7747,1.52896,0.69806,0.24014,-2.39975,5.26823,0.0,1.32437,-0.91073,0.0,38.25078,-91.97032,-0.44371,1.06686,-2.55433,5.93031,1.44
0.65,1.48455,-0.29404,-0.13339,4.45753,-0.27409,-0.11041,16.66667,0.0,0.0,6.77538,1.52383,0.69314,0.24088,-2.38283,5.25042,0.0,1.68612,-1.78683,0.0,36.1752,-87.60998,-0.41963,1.01628,-2.49626,5.80634,1.48
0.66,1.52981,-0.29663,-0.13442,4.52529,-0.25893,-0.10354,16.66667,0.0,0.0,6.77632,1.51629,0.68721,0.24197,-2.36246,5.22429,0.0,2.02721,-2.61919,0.0,34.10914,-83.23627,-0.39567,0.96554,-2.43799,5.68137,1.53
0.67,1.57574,-0.29907,-0.13539,4.59307,-0.24387,-0.09673,16.66667,0.0,0.0,6.77749,1.50647,0.68035,0.24336,-2.33886,5.19029,0.0,2.3478,-3.40782,0.0,32.05824,-78.86329,-0.37188,0.91481,-2.37962,5.55563,1.58
0.68,1.62235,-0.30136,-0.13629,4.66086,-0.22892,-0.09001,16.66667,0.0,0.0,6.77889,1.4945,0.6726,0.24504,-2.31222,5.14884,0.0,2.64807,-4.15287,0.0,30.02775,-74.5042,-0.34832,0.86425,-2.32126,5.42937,1.62
0.69,1.66963,-0.3035,-0.13712,4.72866,-0.21412,-0.08337,16.66667,0.0,0.0,6.78049,1.4805,0.66403,0.24699,-2.28276,5.10038,0.0,2.9283,-4.85458,0.0,28.02257,-70.17128,-0.32506,0.81399,-2.263,5.30282,1.67
0.7,1.7176,-0.3055,-0.13789,4.79649,-0.19947,-0.07682,16.66667,0.0,0.0,6.78228,1.4646,0.65469,0.24916,-2.25065,5.04534,0.0,3.18877,-5.51334,0.0,26.04722,-65.87596,-0.30215,0.76416,-2.20493,5.17618,1.72
0.71,1.76624,-0.30735,-0.1386,4.86433,-0.185,-0.07038,16.66667,0.0,0.0,6.78422,1.44692,0.64464,0.25155,-2.21612,4.98415,0.0,3.42983,-6.12963,0.0,24.10586,-61.62881,-0.27963,0.71489,-2.14715,5.04966,1.77
0.72,1.81556,-0.30905,-0.13924,4.93219,-0.17073,-0.06404,16.66667,0.0,0.0,6.78631,1.42757,0.63394,0.25412,-2.17933,4.91722,0.0,3.65185,-6.70402,0.0,22.20231,-57.43957,-0.25755,0.6663,-2.08972,4.92347,1.82
0.73,1.86556,-0.31062,-0.13982,5.00008,-0.15666,-0.05781,16.66667,0.0,0.0,6.78852,1.40668,0.62264,0.25684,-2.14048,4.84497,0.0,3.85525,-7.23719,0.0,20.34005,-53.31721,-0.23594,0.61848,-2.03273,4.79779,1.87
0.74,1.91624,-0.31205,-0.14033,5.06799,-0.14281,-0.0517,16.66667,0.0,0.0,6.79084,1.38437,0.61079,0.25969,-2.09976,4.7678,0.0,4.04048,-7.72989,0.0,18.5222,-49.26993,-0.21486,0.57153,-1.97625,4.67279,1.92
0.75,1.9676,-0.31334,-0.14079,5.13592,-0.12921,-0.04572,16.66667,0.0,0.0,6.79324,1.36074,0.59845,0.26266,-2.05733,4.68611,0.0,4.20799,-8.18294,0.0,16.75159,-45.3052,-0.19432,0.52554,-1.92034,4.54863,1.97
0.76,2.01964,-0.3145,-0.14119,5.20387,-0.11585,-0.03986,16.66667,0.0,0.0,6.79571,1.3359,0.58567,0.26571,-2.01338,4.60029,0.0,4.3583,-8.59724,0.0,15.03073,-41.42974,-0.17436,0.48059,-1.86506,4.42548,2.02
0.77,2.07236,-0.31553,-0.14153,5.27186,-0.10275,-0.03414,16.66667,0.0,0.0,6.79824,1.30998,0.57249,0.26882,-1.96807,4.5107,0.0,4.49192,-8.97374,0.0,13.36181,-37.64964,-0.155,0.43674,-1.81048,4.30347,2.07
0.78,2.12576,-0.31643,-0.14181,5.33987,-0.08992,-0.02855,16.66667,0.0,0.0,6.8008,1.28307,0.55896,0.27198,-1.92156,4.41773,0.0,4.60939,-9.31344,0.0,11.74674,-33.97028,-0.13626,0.39406,-1.75665,4.18275,2.13
0.79,2.17984,-0.3172,-0.14205,5.4079,-0.07737,-0.02309,16.66667,0.0,0.0,6.80339,1.25528,0.54513,0.27516,-1.87402,4.32173,0.0,4.71126,-9.61741,0.0,10.18716,-30.39646,-0.11817,0.3526,-1.70361,4.06343,2.18
0.8,2.2346,-0.31785,-0.14222,5.47596,-0.0651,-0.01778,16.66667,0.0,0.0,6.80598,1.2267,0.53104,0.27834,-1.82559,4.22305,0.0,4.7981,-9.88673,0.0,8.68441,-26.93232,-0.10074,0.31241,-1.6514,3.94564,2.23
0.81,2.29004,-0.31838,-0.14235,5.54404,-0.05312,-0.01262,16.66667,0.0,0.0,6.80856,1.19743,0.51674,0.28152,-1.77641,4.12201,0.0,4.8705,-10.12254,0.0,7.23961,-23.58147,-0.08398,0.27355,-1.60008,3.82948,2.29
0.82,2.34616,-0.3188,-0.14243,5.61216,-0.04145,-0.00759,16.66667,0.0,0.0,6.81113,1.16757,0.50226,0.28467,-1.72664,4.01895,0.0,4.92903,-10.32601,0.0,5.85361,-20.34694,-0.0679,0.23602,-1.54966,3.71505,2.35
0.83,2.40296,-0.3191,-0.14245,5.68029,-0.03008,-0.00272,16.66667,0.0,0.0,6.81367,1.13721,0.48764,0.28778,-1.67639,3.91417,0.0,4.9743,-10.49833,0.0,4.52704,-17.23125,-0.05251,0.19988,-1.5002,3.60244,2.4
0.84,2.46045,-0.31929,-0.14243,5.74845,-0.01901,0.00201,16.66667,0.0,0.0,6.81617,1.10643,0.47293,0.29084,-1.62581,3.80797,0.0,5.00691,-10.64069,0.0,3.2603,-14.23642,-0.03782,0.16514,-1.45171,3.49173,2.46
0.85,2.51861,-0.31937,-0.14237,5.81664,-0.00826,0.00659,16.66667,0.0,0.0,6.81863,1.07532,0.45815,0.29384,-1.575,3.70064,0.0,5.02744,-10.75433,0.0,2.05359,-11.36398,-0.02382,0.13182,-1.40421,3.38298,2.52
0.86,2.57746,-0.31935,-0.14226,5.88485,0.00218,0.01103,16.66667,0.0,0.0,6.82103,1.04395,0.44334,0.29676,-1.5241,3.59246,0.0,5.03651,-10.84048,0.0,0.9069,-8.61503,-0.01052,0.09993,-1.35774,3.27628,2.58
0.87,2.63699,-0.31922,-0.1421,5.95308,0.01231,0.01531,16.66667,0.0,0.0,6.82337,1.0124,0.42854,0.29961,-1.4732,3.48368,0.0,5.03471,-10.90038,0.0,-0.17994,-5.99023,0.00209,0.06949,-1.3123,3.17166,2.64
0.88,2.69721,-0.319,-0.14191,6.02134,0.02211,0.01945,16.66667,0.0,0.0,6.82564,0.98075,0.41376,0.30237,-1.42242,3.37456,0.0,5.02264,-10.93528,0.0,-1.2073,-3.48985,0.014,0.04048,-1.26792,3.06919,2.7
0.89,2.7581,-0.31869,-0.14167,6.08962,0.0316,0.02344,16.66667,0.0,0.0,6.82784,0.94906,0.39905,0.30503,-1.37185,3.26533,0.0,5.00088,-10.94642,0.0,-2.17568,-1.11378,0.02524,0.01292,-1.22459,2.96891,2.76
0.9,2.81968,-0.31828,-0.1414,6.15792,0.04078,0.02728,16.66667,0.0,0.0,6.82996,0.9174,0.38443,0.30759,-1.32157,3.15622,0.0,4.97003,-10.93503,0.0,-3.08576,1.13845,0.03579,-0.01321,-1.18234,2.87084,2.82
0.91,2.88194,-0.31778,-0.14109,6.22624,0.04964,0.03098,16.66667,0.0,0.0,6.832,0.88583,0.36992,0.31006,-1.27169,3.04743,0.0,4.93064,-10.90236,0.0,-3.93834,3.26763,0.04568,-0.0379,-1.14117,2.77502,2.88
0.92,2.94489,-0.3172,-0.14075,6.29458,0.05818,0.03454,16.66667,0.0,0.0,6.83395,0.8544,0.35555,0.31241,-1.22228,2.93918,0.0,4.8833,-10.84961,0.0,-4.73434,5.27488,0.05492,-0.06119,-1.10108,2.68148,2.94
0.93,3.00852,-0.31654,-0.14037,6.36294,0.06641,0.03795,16.66667,0.0,0.0,6.83583,0.82318,0.34133,0.31466,-1.17342,2.83164,0.0,4.82855,-10.77799,0.0,-5.47481,7.16157,0.06351,-0.08307,-1.06207,2.59022,3.01
0.94,3.07283,-0.31579,-0.13995,6.43131,0.07433,0.04123,16.66667,0.0,0.0,6.83761,0.79222,0.3273,0.3168,-1.12517,2.725,0.0,4.76694,-10.6887,0.0,-6.16088,8.92936,0.07147,-0.10358,-1.02415,2.50126,3.07
0.95,3.13783,-0.31497,-0.13951,6.49971,0.08195,0.04436,16.66667,0.0,0.0,6.83931,0.76156,0.31346,0.31883,-1.07761,2.61941,0.0,4.699,-10.5829,0.0,-6.79381,10.58017,0.07881,-0.12273,-0.98729,2.4146,3.14
0.96,3.20351,-0.31408,-0.13904,6.56812,0.08926,0.04736,16.66667,0.0,0.0,6.84092,0.73124,0.29984,0.32075,-1.03078,2.51504,0.0,4.62525,-10.46174,0.0,-7.3749,12.11611,0.08555,-0.14055,-0.95151,2.33025,3.2
0.97,3.26988,-0.31312,-0.13854,6.63654,0.09627,0.05022,16.66667,0.0,0.0,6.84244,0.70131,0.28645,0.32256,-0.98474,2.41201,0.0,4.5462,-10.32634,0.0,-7.90558,13.53952,0.0917,-0.15706,-0.91679,2.2482,3.27
0.98,3.33693,-0.31209,-0.13801,6.70498,0.10299,0.05296,16.66667,0.0,0.0,6.84388,0.67182,0.2733,0.32427,-0.93955,2.31047,0.0,4.46233,-10.17781,0.0,-8.38728,14.85292,0.09729,-0.17229,-0.88312,2.16844,3.34
0.99,3.40466,-0.31099,-0.13745,6.77343,0.10942,0.05556,16.66667,0.0,0.0,6.84523,0.64278,0.26042,0.32587,-0.89525,2.21054,0.0,4.37411,-10.01722,0.0,-8.82154,16.05899,0.10233,-0.18628,-0.8505,2.09096,3.4
1.0,3.47308,-0.30984,-0.13687,6.8419,0.11556,0.05804,16.66667,0.0,0.0,6.8465,0.61424,0.2478,0.32736,-0.85187,2.11232,0.0,4.28201,-9.84562,0.0,-9.20993,17.16058,0.10684,-0.19906,-0.8189,2.01574,3.47
1.01,3.54218,-0.30863,-0.13627,6.91037,0.12143,0.06039,16.66667,0.0,0.0,6.84769,0.58622,0.23546,0.32876,-0.80946,2.01591,0.0,4.18647,-9.66401,0.0,-9.55405,18.16064,0.11083,-0.21066,-0.78832,1.94276,3.54
1.02,3.61197,-0.30735,-0.13564,6.97886,0.12701,0.06263,16.66667,0.0,0.0,6.8488,0.55876,0.22341,0.33006,-0.76804,1.9214,0.0,4.08792,-9.47339,0.0,-9.85554,19.06227,0.11432,-0.22112,-0.75873,1.872,3.61
1.03,3.68244,-0.30603,-0.13499,7.04736,0.13233,0.06474,16.66667,0.0,0.0,6.84983,0.53187,0.21166,0.33127,-0.72764,1.82888,0.0,3.98675,-9.2747,0.0,-10.11608,19.86865,0.11735,-0.23048,-0.73013,1.80342,3.68
1.04,3.7536,-0.30466,-0.13432,7.11587,0.13739,0.06675,16.66667,0.0,0.0,6.85079,0.50557,0.20021,0.33239,-0.68829,1.73841,0.0,3.88338,-9.06887,0.0,-10.33734,20.58306,0.11991,-0.23876,-0.70249,1.737,3.75
1.05,3.82545,-0.30324,-0.13364,7.18438,0.14219,0.06864,16.66667,0.0,0.0,6.85168,0.47988,0.18908,0.33342,-0.64999,1.65006,0.0,3.77817,-8.85678,0.0,-10.52102,21.20884,0.12204,-0.24602,-0.67579,1.67271,3.83
1.06,3.89798,-0.30177,-0.13293,7.25291,0.14673,0.07042,16.66667,0.0,0.0,6.85251,0.45483,0.17825,0.33437,-0.61278,1.56387,0.0,3.67148,-8.63929,0.0,-10.66884,21.74938,0.12376,-0.25229,-0.65002,1.6105,3.9
1.07,3.97119,-0.30026,-0.13221,7.32144,0.15104,0.0721,16.66667,0.0,0.0,6.85326,0.43042,0.16774,0.33524,-0.57665,1.47991,0.0,3.56366,-8.41721,0.0,-10.78249,22.20813,0.12508,-0.25761,-0.62515,1.55034,3.97
1.08,4.04509,-0.29871,-0.13148,7.38998,0.15511,0.07367,16.66667,0.0,0.0,6.85396,0.40666,0.15755,0.33604,-0.54163,1.39819,0.0,3.45502,-8.19132,0.0,-10.86367,22.58857,0.12602,-0.26203,-0.60117,1.4922,4.05
1.09,4.11968,-0.29712,-0.13072,7.45853,0.15894,0.07515,16.66667,0.0,0.0,6.8546,0.38356,0.14768,0.33677,-0.5077,1.31876,0.0,3.34588,-7.96238,0.0,-10.91408,22.89418,0.1266,-0.26557,-0.57805,1.43602,4.12
1.1,4.19495,-0.29549,-0.12996,7.52708,0.16255,0.07653,16.66667,0.0,0.0,6.85518,0.36114,0.13814,0.33743,-0.47488,1.24164,0.0,3.23653,-7.7311,0.0,-10.9354,23.12846,0.12685,-0.26829,-0.55576,1.38177,4.19
1.11,4.2709,-0.29383,-0.12918,7.59564,0.16595,0.07782,16.66667,0.0,0.0,6.85571,0.33939,0.12891,0.33803,-0.44317,1.16684,0.0,3.12723,-7.49815,0.0,-10.92928,23.29491,0.12678,-0.27022,-0.5343,1.3294,4.27
1.12,4.34754,-0.29214,-0.12839,7.6642,0.16913,0.07902,16.66667,0.0,0.0,6.85619,0.31831,0.12001,0.33857,-0.41256,1.09438,0.0,3.01826,-7.26418,0.0,-10.89736,23.397,0.12641,-0.27141,-0.51362,1.27887,4.35
1.13,4.42487,-0.29042,-0.12759,7.73276,0.17211,0.08013,16.66667,0.0,0.0,6.85663,0.29792,0.11142,0.33906,-0.38305,1.02425,0.0,2.90985,-7.02979,0.0,-10.84126,23.43821,0.12576,-0.27188,-0.49372,1.23012,4.42
1.14,4.50289,-0.28867,-0.12678,7.80133,0.17489,0.08117,16.66667,0.0,0.0,6.85703,0.27821,0.10316,0.33949,-0.35462,0.95646,0.0,2.80222,-6.79557,0.0,-10.76256,23.42195,0.12485,-0.27169,-0.47456,1.18312,4.5
1.15,4.58158,-0.2869,-0.12596,7.86991,0.17748,0.08212,16.66667,0.0,0.0,6.85738,0.25917,0.0952,0.33988,-0.32728,0.891,0.0,2.69559,-6.56206,0.0,-10.66281,23.35162,0.12369,-0.27088,-0.45613,1.13781,4.58
1.16,4.66097,-0.2851,-0.12513,7.93849,0.17989,0.08299,16.66667,0.0,0.0,6.8577,0.2408,0.08756,0.34023,-0.301,0.82786,0.0,2.59016,-6.32975,0.0,-10.54354,23.23055,0.12231,-0.26947,-0.4384,1.09415,4.66
1.17,4.74104,-0.28328,-0.12429,8.00706,0.18212,0.08379,16.66667,0.0,0.0,6.85798,0.22311,0.08022,0.34053,-0.27578,0.76702,0.0,2.4861,-6.09913,0.0,-10.40621,23.06203,0.12071,-0.26752,-0.42134,1.05208,4.74
1.18,4.8218,-0.28143,-0.12344,8.07565,0.18418,0.08453,16.66667,0.0,0.0,6.85823,0.20607,0.07319,0.3408,-0.2516,0.70845,0.0,2.38357,-5.87064,0.0,-10.25229,22.84928,0.11893,-0.26505,-0.40494,1.01155,4.82
1.19,4.90324,-0.27957,-0.12259,8.14423,0.18608,0.08519,16.66667,0.0,0.0,6.85845,0.18969,0.06645,0.34104,-0.22843,0.65214,0.0,2.28274,-5.64469,0.0,-10.08316,22.59547,0.11696,-0.26211,-0.38917,0.97253,4.9
1.2,4.98537,-0.2777,-0.12173,8.21282,0.18782,0.08579,16.66667,0.0,0.0,6.85865,0.17396,0.06,0.34124,-0.20627,0.59806,0.0,2.18374,-5.42165,0.0,-9.9002,22.30367,0.11484,-0.25872,-0.37401,0.93495,4.99
1.21,5.06818,-0.2758,-0.12087,8.28141,0.18941,0.08633,16.66667,0.0,0.0,6.85882,0.15887,0.05384,0.34142,-0.1851,0.54616,0.0,2.08669,-5.20188,0.0,-9.70472,21.9769,0.11257,-0.25493,-0.35943,0.89877,5.07
1.22,5.15168,-0.27389,-0.12,8.35,0.19085,0.08681,16.66667,0.0,0.0,6.85897,0.1444,0.04796,0.34157,-0.16488,0.49642,0.0,1.99171,-4.9857,0.0,-9.49799,21.61809,0.11018,-0.25077,-0.34541,0.86395,5.15
1.23,5.23587,-0.27197,-0.11913,8.41859,0.19216,0.08723,16.66667,0.0,0.0,6.8591,0.13055,0.04236,0.3417,-0.14561,0.4488,0.0,1.8989,-4.7734,0.0,-9.28124,21.23009,0.10766,-0.24627,-0.33193,0.83042,5.24
1.24,5.32074,-0.27004,-0.11825,8.48718,0.19333,0.0876,16.66667,0.0,0.0,6.85921,0.1173,0.03702,0.34181,-0.12726,0.40326,0.0,1.80834,-4.56524,0.0,-9.05566,20.81564,0.10505,-0.24146,-0.31897,0.79815,5.32
1.25,5.4063,-0.26809,-0.11738,8.55577,0.19438,0.08792,16.66667,0.0,0.0,6.85931,0.10465,0.03194,0.3419,-0.10979,0.35975,0.0,1.72012,-4.36147,0.0,-8.82237,20.37742,0.10234,-0.23638,-0.30651,0.76709,5.41
1.26,5.49254,-0.26614,-0.11649,8.62437,0.1953,0.08819,16.66667,0.0,0.0,6.85939,0.09257,0.02711,0.34197,-0.0932,0.31822,0.0,1.63429,-4.16229,0.0,-8.58247,19.91801,0.09956,-0.23105,-0.29453,0.73718,5.49
1.27,5.57947,-0.26418,-0.11561,8.69296,0.19611,0.08842,16.66667,0.0,0.0,6.85945,0.08105,0.02253,0.34203,-0.07746,0.27864,0.0,1.55092,-3.96789,0.0,-8.33699,19.43987,0.09671,-0.2255,-0.283,0.7084,5.58
1.28,5.66709,-0.26221,-0.11472,8.76156,0.19681,0.0886,16.66667,0.0,0.0,6.85951,0.07009,0.01819,0.34208,-0.06253,0.24094,0.0,1.47006,-3.77843,0.0,-8.08693,18.94539,0.09381,-0.21977,-0.2719,0.68068,5.67
1.29,5.75539,-0.26024,-0.11384,8.83015,0.19741,0.08874,16.66667,0.0,0.0,6.85955,0.05966,0.01408,0.34211,-0.0484,0.20509,0.0,1.39172,-3.59407,0.0,-7.83323,18.43686,0.09087,-0.21387,-0.26122,0.65399,5.76
1.3,5.84437,-0.25826,-0.11295,8.89875,0.19791,0.08884,16.66667,0.0,0.0,6.85959,0.04975,0.01019,0.34214,-0.03504,0.17102,0.0,1.31596,-3.4149,0.0,-7.57679,17.91647,0.08789,-0.20783,-0.25094,0.62828,5.84
1.31,5.93405,-0.25628,-0.11206,8.96734,0.19831,0.08891,16.66667,0.0,0.0,6.85962,0.04034,0.00652,0.34215,-0.02242,0.13868,0.0,1.24277,-3.24104,0.0,-7.31846,17.38631,0.08489,-0.20168,-0.24104,0.60352,5.93
1.32,6.02441,-0.25429,-0.11117,9.03594,0.19862,0.08894,16.66667,0.0,0.0,6.85964,0.03142,0.00306,0.34216,-0.01051,0.10803,0.0,1.17218,-3.07255,0.0,-7.05904,16.84836,0.08188,-0.19544,-0.23149,0.57965,6.02
1.33,6.11545,-0.2523,-0.11028,9.10454,0.19885,0.08894,16.66667,0.0,0.0,6.85965,0.02298,-0.0002,0.34217,0.0007,0.079,0.0,1.10419,-2.90951,0.0,-6.7993,16.30451,0.07887,-0.18913,-0.22229,0.55665,6.12
1.34,6.20718,-0.25031,-0.10939,9.17313,0.199,0.0889,16.66667,0.0,0.0,6.85966,0.01499,-0.00327,0.34216,0.01126,0.05154,0.0,1.03879,-2.75194,0.0,-6.53994,15.75657,0.07586,-0.18278,-0.21342,0.53447,6.21
1.35,6.2996,-0.24832,-0.1085,9.24173,0.19908,0.08884,16.66667,0.0,0.0,6.85966,0.00745,-0.00616,0.34216,0.02117,0.0256,0.0,0.97597,-2.59988,0.0,-6.28163,15.20623,0.07287,-0.17639,-0.20486,0.51307,6.3
1.36,6.3927,-0.24633,-0.10761,9.31033,0.19908,0.08875,16.66667,0.0,0.0,6.85966,0.00033,-0.00886,0.34215,0.03048,0.00112,0.0,0.91572,-2.45333,0.0,-6.025,14.65508,0.06989,-0.17,-0.19659,0.49241,6.39
1.37,6.48649,-0.24434,-0.10673,9.37892,0.19902,0.08864,16.66667,0.0,0.0,6.85966,-0.00638,-0.0114,0.34213,0.03919,-0.02195,0.0,0.85802,-2.31228,0.0,-5.77062,14.10465,0.06694,-0.16361,-0.1886,0.47247,6.49
1.38,6.58097,-0.24235,-0.10584,9.44752,0.19889,0.0885,16.66667,0.0,0.0,6.85966,-0.0127,-0.01377,0.34211,0.04735,-0.04367,0.0,0.80283,-2.17672,0.0,-5.51904,13.55633,0.06402,-0.15725,-0.18088,0.45321,6.58
1.39,6.67613,-0.24036,-0.10496,9.51612,0.1987,0.08834,16.66667,0.0,0.0,6.85965,-0.01864,-0.01599,0.3421,0.05497,-0.06409,0.0,0.75012,-2.04661,0.0,-5.27076,13.01144,0.06114,-0.15093,-0.1734,0.43459,6.68
1.4,6.77198,-0.23838,-0.10408,9.58471,0.19846,0.08816,16.66667,0.0,0.0,6.85964,-0.02422,-0.01806,0.34208,0.06209,-0.08327,0.0,0.69986,-1.92189,0.0,-5.02623,12.47123,0.0583,-0.14467,-0.16617,0.41658,6.77
1.41,6.86851,-0.2364,-0.1032,9.65331,0.19817,0.08796,16.66667,0.0,0.0,6.85963,-0.02945,-0.01999,0.34206,0.06872,-0.10125,0.0,0.652,-1.80253,0.0,-4.78587,11.93683,0.05552,-0.13847,-0.15916,0.39916,6.87
1.42,6.96573,-0.23442,-0.10232,9.7219,0.19782,0.08774,16.66667,0.0,0.0,6.85962,-0.03435,-0.02178,0.34204,0.07488,-0.1181,0.0,0.6065,-1.68843,0.0,-4.55006,11.4093,0.05278,-0.13235,-0.15236,0.38229,6.97
1.43,7.06363,-0.23244,-0.10145,9.7905,0.19744,0.08751,16.66667,0.0,0.0,6.8596,-0.03894,-0.02345,0.34201,0.08061,-0.13386,0.0,0.5633,-1.57954,0.0,-4.31916,10.8896,0.0501,-0.12632,-0.14576,0.36594,7.06
1.44,7.16223,-0.23047,-0.10057,9.8591,0.197,0.08726,16.66667,0.0,0.0,6.85959,-0.04322,-0.02499,0.34199,0.08592,-0.14859,0.0,0.52237,-1.47575,0.0,-4.09347,10.37864,0.04748,-0.12039,-0.13936,0.35009,7.16
1.45,7.2615,-0.22851,-0.0997,9.92769,0.19653,0.087,16.66667,0.0,0.0,6.85958,-0.04722,-0.02642,0.34197,0.09084,-0.16233,0.0,0.48364,-1.37698,0.0,-3.87326,9.87721,0.04493,-0.11458,-0.13313,0.33471,7.26
1.46,7.36147,-0.22655,-0.09884,9.99629,0.19602,0.08672,16.66667,0.0,0.0,6.85957,-0.05094,-0.02775,0.34195,0.09539,-0.17513,0.0,0.44705,-1.28312,0.0,-3.65878,9.38606,0.04244,-0.10888,-0.12707,0.31978,7.36
1.47,7.46211,-0.22459,-0.09797,10.06488,0.19548,0.08643,16.66667,0.0,0.0,6.85955,-0.05441,-0.02897,0.34193,0.09958,-0.18705,0.0,0.41255,-1.19406,0.0,-3.45025,8.90585,0.04002,-0.10331,-0.12118,0.30527,7.46
1.48,7.56345,-0.22265,-0.09711,10.13348,0.1949,0.08613,16.66667,0.0,0.0,6.85954,-0.05763,-0.03009,0.34191,0.10345,-0.19812,0.0,0.38007,-1.10969,0.0,-3.24785,8.43717,0.03768,-0.09787,-0.11543,0.29117,7.56
1.49,7.66547,-0.2207,-0.09625,10.20207,0.19429,0.08582,16.66667,0.0,0.0,6.85953,-0.06062,-0.03113,0.34189,0.10701,-0.2084,0.0,0.34955,-1.02988,0.0,-3.05172,7.98054,0.0354,-0.09257,-0.10983,0.27744,7.67
1.5,7.76818,-0.21877,-0.0954,10.27067,0.19366,0.0855,16.66667,0.0,0.0,6.85952,-0.06339,-0.03208,0.34187,0.11027,-0.21793,0.0,0.32093,-0.95452,0.0,-2.86201,7.5364,0.0332,-0.08742,-0.10436,0.26407,7.77
1.51,7.87157,-0.21684,-0.09455,10.33926,0.193,0.08517,16.66667,0.0,0.0,6.8595,-0.06596,-0.03295,0.34186,0.11327,-0.22674,0.0,0.29414,-0.88347,0.0,-2.6788,7.10516,0.03107,-0.08242,-0.09902,0.25105,7.87
1.52,7.97565,-0.21491,-0.0937,10.40786,0.19232,0.08483,16.66667,0.0,0.0,6.85949,-0.06833,-0.03374,0.34184,0.11601,-0.23489,0.0,0.26912,-0.81659,0.0,-2.50219,6.68715,0.02903,-0.07757,-0.0938,0.23834,7.98
1.53,8.08041,-0.213,-0.09285,10.47645,0.19161,0.08448,16.66667,0.0,0.0,6.85948,-0.07052,-0.03447,0.34182,0.11851,-0.24242,0.0,0.2458,-0.75377,0.0,-2.33221,6.28264,0.02705,-0.07288,-0.08869,0.22594,8.08
1.54,8.18586,-0.21109,-0.09201,10.54505,0.19089,0.08413,16.66667,0.0,0.0,6.85947,-0.07253,-0.03514,0.34181,0.12079,-0.24935,0.0,0.22411,-0.69485,0.0,-2.1689,5.89184,0.02516,-0.06835,-0.08369,0.21383,8.19
1.55,8.292,-0.20919,-0.09117,10.61364,0.19014,0.08378,16.66667,0.0,0.0,6.85946,-0.07439,-0.03574,0.3418,0.12287,-0.25574,0.0,0.20399,-0.6397,0.0,-2.01227,5.51492,0.02334,-0.06397,-0.07879,0.202,8.29
1.56,8.39882,-0.20729,-0.09034,10.68224,0.18938,0.08341,16.66667,0.0,0.0,6.85945,-0.0761,-0.03629,0.34178,0.12476,-0.26161,0.0,0.18536,-0.58818,0.0,-1.86231,5.15201,0.0216,-0.05976,-0.07398,0.19042,8.4
1.57,8.50633,-0.20541,-0.08951,10.75083,0.18861,0.08304,16.66667,0.0,0.0,6.85945,-0.07767,-0.03679,0.34177,0.12647,-0.267,0.0,0.16817,-0.54015,0.0,-1.71899,4.80316,0.01994,-0.05572,-0.06927,0.17909,8.51
1.58,8.61452,-0.20353,-0.08868,10.81943,0.18781,0.08267,16.66667,0.0,0.0,6.85944,-0.0791,-0.03724,0.34176,0.12802,-0.27194,0.0,0.15235,-0.49546,0.0,-1.58228,4.46841,0.01835,-0.05183,-0.06464,0.168,8.61
1.59,8.7234,-0.20166,-0.08786,10.88802,0.18701,0.0823,16.66667,0.0,0.0,6.85943,-0.08042,-0.03765,0.34175,0.12943,-0.27647,0.0,0.13783,-0.45399,0.0,-1.4521,4.14774,0.01684,-0.04811,-0.0601,0.15713,8.72
1.6,8.83297,-0.1998,-0.08704,10.95662,0.18619,0.08192,16.66667,0.0,0.0,6.85942,-0.08163,-0.03802,0.34174,0.1307,-0.28062,0.0,0.12455,-0.41558,0.0,-1.32838,3.8411,0.01541,-0.04456,-0.05564,0.14647,8.83
1.61,8.94322,-0.19794,-0.08622,11.02521,0.18537,0.08153,16.66667,0.0,0.0,6.85942,-0.08273,-0.03835,0.34173,0.13185,-0.28442,0.0,0.11244,-0.38009,0.0,-1.21103,3.54839,0.01405,-0.04116,-0.05125,0.13601,8.94
1.62,9.05416,-0.1961,-0.08541,11.0938,0.18453,0.08115,16.66667,0.0,0.0,6.85941,-0.08374,-0.03865,0.34172,0.13288,-0.28789,0.0,0.10144,-0.3474,0.0,-1.09996,3.2695,0.01276,-0.03793,-0.04693,0.12575,9.05
1.63,9.16578,-0.19426,-0.08461,11.1624,0.18368,0.08076,16.66667,0.0,0.0,6.85941,-0.08466,-0.03893,0.34172,0.13382,-0.29105,0.0,0.09149,-0.31735,0.0,-0.99505,3.00426,0.01154,-0.03485,-0.04268,0.11567,9.17
1.64,9.27809,-0.19243,-0.0838,11.23099,0.18283,0.08036,16.66667,0.0,0.0,6.8594,-0.0855,-0.03917,0.34171,0.13466,-0.29395,0.0,0.08252,-0.28983,0.0,-0.89617,2.75249,0.0104,-0.03193,-0.0385,0.10577,9.28
1.65,9.39109,-0.19061,-0.083,11.29959,0.18197,0.07997,16.66667,0.0,0.0,6.8594,-0.08627,-0.03939,0.3417,0.13542,-0.29659,0.0,0.07449,-0.26469,0.0,-0.8032,2.51399,0.00932,-0.02916,-0.03438,0.09604,9.39
1.66,9.50477,-0.1888,-0.08221,11.36818,0.1811,0.07957,16.66667,0.0,0.0,6.85939,-0.08698,-0.03959,0.3417,0.13611,-0.299,0.0,0.06733,-0.24181,0.0,-0.71598,2.28851,0.00831,-0.02655,-0.03032,0.08647,9.5
1.67,9.61914,-0.187,-0.08141,11.43677,0.18022,0.07918,16.66667,0.0,0.0,6.85939,-0.08762,-0.03977,0.34169,0.13673,-0.30121,0.0,0.06099,-0.22105,0.0,-0.63438,2.0758,0.00736,-0.02408,-0.02632,0.07706,9.62
1.68,9.73419,-0.18521,-0.08063,11.50537,0.17934,0.07878,16.66667,0.0,0.0,6.85939,-0.08821,-0.03994,0.34169,0.1373,-0.30323,0.0,0.05541,-0.20229,0.0,-0.55824,1.87558,0.00648,-0.02176,-0.02238,0.0678,9.73
1.69,9.84993,-0.18342,-0.07984,11.57396,0.17845,0.07838,16.66667,0.0,0.0,6.85938,-0.08874,-0.04009,0.34168,0.13781,-0.30508,0.0,0.05053,-0.18542,0.0,-0.48739,1.68756,0.00565,-0.01958,-0.0185,0.05868,9.85
1.7,9.96636,-0.18165,-0.07906,11.64256,0.17756,0.07797,16.66667,0.0,0.0,6.85938,-0.08924,-0.04023,0.34168,0.13829,-0.30678,0.0,0.04632,-0.1703,0.0,-0.42168,1.51142,0.00489,-0.01753,-0.01467,0.04971,9.97
1.71,10.08347,-0.17988,-0.07829,11.71115,0.17666,0.07757,16.66667,0.0,0.0,6.85938,-0.08969,-0.04035,0.34168,0.13872,-0.30835,0.0,0.04271,-0.15683,0.0,-0.36092,1.34684,0.00419,-0.01562,-0.01089,0.04088,10.08
1.72,10.20127,-0.17812,-0.07752,11.77974,0.17576,0.07717,16.66667,0.0,0.0,6.85937,-0.09011,-0.04047,0.34167,0.13913,-0.30979,0.0,0.03966,-0.1449,0.0,-0.30495,1.19349,0.00354,-0.01384,-0.00717,0.03218,10.2
1.73,10.31975,-0.17637,-0.07675,11.84834,0.17485,0.07676,16.66667,0.0,0.0,6.85937,-0.0905,-0.04058,0.34167,0.13951,-0.31113,0.0,0.03712,-0.13439,0.0,-0.2536,1.05101,0.00294,-0.01219,-0.0035,0.02362,10.32
1.74,10.43892,-0.17463,-0.07599,11.91693,0.17395,0.07635,16.66667,0.0,0.0,6.85937,-0.09087,-0.04069,0.34167,0.13986,-0.31238,0.0,0.03505,-0.1252,0.0,-0.20668,0.91904,0.0024,-0.01066,0.00012,0.01518,10.44
1.75,10.55878,-0.1729,-0.07523,11.98552,0.17303,0.07595,16.66667,0.0,0.0,6.85937,-0.09121,-0.04078,0.34166,0.14021,-0.31355,0.0,0.03341,-0.11723,0.0,-0.16401,0.79723,0.0019,-0.00925,0.00368,0.00688,10.56
1.76,10.67932,-0.17118,-0.07447,12.05412,0.17212,0.07554,16.66667,0.0,0.0,6.85937,-0.09153,-0.04088,0.34166,0.14053,-0.31466,0.0,0.03216,-0.11037,0.0,-0.12541,0.6852,0.00145,-0.00795,0.0072,-0.00131,10.68
1.77,10.80054,-0.16947,-0.07372,12.12271,0.1712,0.07513,16.66667,0.0,0.0,6.85936,-0.09183,-0.04097,0.34166,0.14085,-0.3157,0.0,0.03125,-0.10455,0.0,-0.09071,0.58259,0.00105,-0.00676,0.01066,-0.00937,10.8
1.78,10.92246,-0.16777,-0.07297,12.1913,0.17028,0.07472,16.66667,0.0,0.0,6.85936,-0.09212,-0.04106,0.34166,0.14117,-0.31669,0.0,0.03066,-0.09966,0.0,-0.05973,0.489,0.00069,-0.00567,0.01408,-0.0173,10.92
1.79,11.04506,-0.16607,-0.07223,12.2599,0.16935,0.0743,16.66667,0.0,0.0,6.85936,-0.0924,-0.04115,0.34165,0.14147,-0.31765,0.0,0.03033,-0.09562,0.0,-0.03228,0.40407,0.00037,-0.00469,0.01744,-0.02512,11.05
1.8,11.16834,-0.16439,-0.07149,12.32849,0.16843,0.07389,16.66667,0.0,0.0,6.85936,-0.09267,-0.04124,0.34165,0.14178,-0.31857,0.0,0.03025,-0.09234,0.0,-0.00818,0.32741,9e-05,-0.0038,0.02076,-0.03281,11.17
1.81,11.29231,-0.16271,-0.07076,12.39709,0.1675,0.07348,16.66667,0.0,0.0,6.85936,-0.09293,-0.04133,0.34165,0.14209,-0.31947,0.0,0.03038,-0.08976,0.0,0.01273,0.25864,-0.00015,-0.003,0.02402,-0.04039,11.29
1.82,11.41697,-0.16105,-0.07002,12.46568,0.16657,0.07306,16.66667,0.0,0.0,6.85935,-0.09318,-0.04142,0.34165,0.1424,-0.32034,0.0,0.03069,-0.08778,0.0,0.03064,0.1974,-0.00036,-0.00229,0.02724,-0.04785,11.42
1.83,11.54231,-0.15939,-0.0693,12.53427,0.16563,0.07265,16.66667,0.0,0.0,6.85935,-0.09343,-0.04152,0.34164,0.14272,-0.3212,0.0,0.03114,-0.08635,0.0,0.0457,0.14329,-0.00053,-0.00166,0.0304,-0.05518,11.54
1.84,11.66834,-0.15775,-0.06858,12.60287,0.1647,0.07223,16.66667,0.0,0.0,6.85935,-0.09368,-0.04161,0.34164,0.14304,-0.32206,0.0,0.03172,-0.08539,0.0,0.0581,0.09596,-0.00067,-0.00111,0.03352,-0.0624,11.67
1.85,11.79505,-0.15611,-0.06786,12.67146,0.16376,0.07182,16.66667,0.0,0.0,6.85935,-0.09393,-0.04171,0.34164,0.14337,-0.3229,0.0,0.0324,-0.08484,0.0,0.068,0.05504,-0.00079,-0.00064,0.03658,-0.06951,11.8
1.86,11.92245,-0.15448,-0.06714,12.74005,0.16281,0.0714,16.66667,0.0,0.0,6.85935,-0.09417,-0.0418,0.34164,0.14371,-0.32375,0.0,0.03316,-0.08464,0.0,0.07556,0.02016,-0.00088,-0.00023,0.03959,-0.07649,11.92
1.87,12.05054,-0.15286,-0.06643,12.80865,0.16187,0.07098,16.66667,0.0,0.0,6.85935,-0.09442,-0.0419,0.34164,0.14405,-0.32459,0.0,0.03397,-0.08473,0.0,0.08093,-0.00903,-0.00094,0.0001,0.04255,-0.08335,12.05
1.88,12.17931,-0.15125,-0.06573,12.87724,0.16092,0.07056,16.66667,0.0,0.0,6.85934,-0.09467,-0.04201,0.34163,0.14441,-0.32544,0.0,0.03481,-0.08506,0.0,0.08427,-0.03287,-0.00098,0.00038,0.04546,-0.0901,12.18
1.89,12.30877,-0.14965,-0.06503,12.94583,0.15997,0.07014,16.66667,0.0,0.0,6.85934,-0.09491,-0.04211,0.34163,0.14477,-0.32629,0.0,0.03567,-0.08557,0.0,0.08574,-0.05172,-0.00099,0.0006,0.04831,-0.09672,12.31
1.9,12.43892,-0.14806,-0.06433,13.01443,0.15902,0.06972,16.66667,0.0,0.0,6.85934,-0.09516,-0.04222,0.34163,0.14514,-0.32715,0.0,0.03652,-0.08623,0.0,0.08547,-0.06589,-0.00099,0.00076,0.05112,-0.10323,12.44
1.91,12.56975,-0.14648,-0.06364,13.08302,0.15807,0.06929,16.66667,0.0,0.0,6.85934,-0.09542,-0.04233,0.34163,0.14552,-0.32802,0.0,0.03736,-0.08699,0.0,0.0836,-0.07573,-0.00097,0.00088,0.05387,-0.10962,12.57
1.92,12.70126,-0.14491,-0.06295,13.15161,0.15711,0.06887,16.66667,0.0,0.0,6.85934,-0.09567,-0.04244,0.34163,0.1459,-0.3289,0.0,0.03816,-0.08781,0.0,0.08028,-0.08154,-0.00093,0.00095,0.05656,-0.11588,12.7
1.93,12.83346,-0.14335,-0.06226,13.22021,0.15615,0.06844,16.66667,0.0,0.0,6.85934,-0.09593,-0.04256,0.34162,0.1463,-0.32978,0.0,0.03892,-0.08864,0.0,0.07563,-0.08363,-0.00088,0.00097,0.0592,-0.12203,12.83
1.94,12.96635,-0.1418,-0.06158,13.2888,0.15519,0.06802,16.66667,0.0,0.0,6.85933,-0.09619,-0.04267,0.34162,0.1467,-0.33067,0.0,0.03962,-0.08946,0.0,0.06979,-0.08229,-0.00081,0.00095,0.06179,-0.12805,12.97
1.95,13.09993,-0.14025,-0.06091,13.35739,0.15423,0.06759,16.66667,0.0,0.0,6.85933,-0.09645,-0.04279,0.34162,0.14711,-0.33157,0.0,0.04024,-0.09024,0.0,0.06287,-0.07783,-0.00073,0.0009,0.06433,-0.13395,13.1
1.96,13.23419,-0.13872,-0.06024,13.42599,0.15326,0.06716,16.66667,0.0,0.0,6.85933,-0.09671,-0.04291,0.34162,0.14752,-0.33248,0.0,0.04079,-0.09095,0.0,0.05498,-0.07051,-0.00064,0.00082,0.06681,-0.13973,13.23
1.97,13.36913,-0.1372,-0.05957,13.49458,0.15229,0.06673,16.66667,0.0,0.0,6.85933,-0.09698,-0.04303,0.34161,0.14794,-0.33339,0.0,0.04126,-0.09155,0.0,0.04626,-0.06061,-0.00054,0.0007,0.06923,-0.14538,13.37
1.98,13.50476,-0.13569,-0.05891,13.56317,0.15132,0.0663,16.66667,0.0,0.0,6.85933,-0.09725,-0.04316,0.34161,0.14836,-0.33431,0.0,0.04162,-0.09204,0.0,0.03679,-0.04838,-0.00043,0.00056,0.0716,-0.15091,13.5
1.99,13.64108,-0.13418,-0.05825,13.63177,0.15034,0.06586,16.66667,0.0,0.0,6.85933,-0.09751,-0.04328,0.34161,0.14879,-0.33523,0.0,0.04189,-0.09238,0.0,0.02668,-0.03406,-0.00031,0.0004,0.07391,-0.15632,13.64
2.0,13.77809,-0.13269,-0.05759,13.70036,0.14936,0.06543,16.66667,0.0,0.0,6.85932,-0.09778,-0.0434,0.34161,0.14921,-0.33616,0.0,0.04205,-0.09256,0.0,0.01603,-0.01791,-0.00019,0.00021,0.07617,-0.1616,13.78
2.01,13.91577,-0.1312,-0.05694,13.76895,0.14838,0.06499,16.66667,0.0,0.0,6.85932,-0.09805,-0.04353,0.3416,0.14964,-0.33708,0.0,0.0421,-0.09256,0.0,0.00494,-0.00014,-6e-05,0.0,0.07838,-0.16676,13.92
2.02,14.05415,-0.12973,-0.0563,13.83755,0.1474,0.06456,16.66667,0.0,0.0,6.85932,-0.09832,-0.04365,0.3416,0.15006,-0.338,0.0,0.04204,-0.09237,0.0,-0.00652,0.01903,8e-05,-0.00022,0.08052,-0.17179,14.05
2.03,14.19321,-0.12827,-0.05566,13.90614,0.14641,0.06412,16.66667,0.0,0.0,6.85932,-0.09859,-0.04378,0.3416,0.15049,-0.33892,0.0,0.04185,-0.09197,0.0,-0.01826,0.0394,0.00021,-0.00046,0.08261,-0.1767,14.19
2.04,14.33296,-0.12681,-0.05502,13.97473,0.14543,0.06368,16.66667,0.0,0.0,6.85932,-0.09885,-0.0439,0.3416,0.15091,-0.33983,0.0,0.04155,-0.09137,0.0,-0.0302,0.06076,0.00035,-0.0007,0.08465,-0.18148,14.33
2.05,14.47339,-0.12537,-0.05439,14.04333,0.14444,0.06324,16.66667,0.0,0.0,6.85931,-0.09911,-0.04402,0.34159,0.15133,-0.34073,0.0,0.04113,-0.09054,0.0,-0.04226,0.08294,0.00049,-0.00096,0.08663,-0.18614,14.47
2.06,14.61451,-0.12393,-0.05376,14.11192,0.14344,0.0628,16.66667,0.0,0.0,6.85931,-0.09937,-0.04414,0.34159,0.15174,-0.34162,0.0,0.04059,-0.08948,0.0,-0.05439,0.10575,0.00063,-0.00123,0.08855,-0.19067,14.61
2.07,14.75632,-0.12251,-0.05314,14.18051,0.14245,0.06236,16.66667,0.0,0.0,6.85931,-0.09963,-0.04426,0.34159,0.15214,-0.3425,0.0,0.03992,-0.08819,0.0,-0.06651,0.12904,0.00077,-0.0015,0.09041,-0.19508,14.76
2.08,14.89881,-0.12109,-0.05252,14.24911,0.14145,0.06191,16.66667,0.0,0.0,6.85931,-0.09988,-0.04437,0.34159,0.15254,-0.34337,0.0,0.03913,-0.08666,0.0,-0.07857,0.15264,0.00091,-0.00177,0.09222,-0.19936,14.9
2.09,15.04198,-0.11969,-0.0519,14.3177,0.14044,0.06147,16.66667,0.0,0.0,6.85931,-0.10013,-0.04448,0.34159,0.15292,-0.34422,0.0,0.03823,-0.0849,0.0,-0.09051,0.17642,0.00105,-0.00205,0.09398,-0.20352,15.04
2.1,15.18585,-0.1183,-0.05129,14.38629,0.13944,0.06102,16.66667,0.0,0.0,6.8593,-0.10037,-0.04459,0.34158,0.1533,-0.34504,0.0,0.03721,-0.0829,0.0,-0.10228,0.20023,0.00119,-0.00232,0.09568,-0.20755,15.19
2.11,15.3304,-0.11691,-0.05069,14.45488,0.13844,0.06058,16.66667,0.0,0.0,6.8593,-0.1006,-0.0447,0.34158,0.15367,-0.34585,0.0,0.03607,-0.08066,0.0,-0.11383,0.22395,0.00132,-0.0026,0.09732,-0.21146,15.33
2.12,15.47563,-0.11554,-0.05008,14.52348,0.13743,0.06013,16.66667,0.0,0.0,6.8593,-0.10083,-0.0448,0.34158,0.15402,-0.34663,0.0,0.03482,-0.07818,0.0,-0.12512,0.24747,0.00145,-0.00287,0.09891,-0.21524,15.48
2.13,15.62155,-0.11417,-0.04949,14.59207,0.13642,0.05968,16.66667,0.0,0.0,6.8593,-0.10105,-0.0449,0.34158,0.15436,-0.34738,0.0,0.03346,-0.07548,0.0,-0.13612,0.27067,0.00158,-0.00314,0.10044,-0.2189,15.62
2.14,15.76816,-0.11282,-0.04889,14.66066,0.1354,0.05923,16.66667,0.0,0.0,6.8593,-0.10126,-0.045,0.34157,0.15468,-0.3481,0.0,0.03199,-0.07254,0.0,-0.14678,0.29345,0.0017,-0.0034,0.10192,-0.22244,15.77
2.15,15.91545,-0.11147,-0.04831,14.72926,0.13439,0.05878,16.66667,0.0,0.0,6.8593,-0.10146,-0.04509,0.34157,0.15499,-0.34879,0.0,0.03042,-0.06938,0.0,-0.15707,0.31573,0.00182,-0.00366,0.10334,-0.22585,15.92
2.16,16.06343,-0.11014,-0.04772,14.79785,0.13337,0.05833,16.66667,0.0,0.0,6.8593,-0.10165,-0.04517,0.34157,0.15528,-0.34945,0.0,0.02875,-0.06601,0.0,-0.16697,0.33741,0.00194,-0.00391,0.10471,-0.22914,16.06
2.17,16.21209,-0.10882,-0.04715,14.86644,0.13235,0.05787,16.66667,0.0,0.0,6.85929,-0.10183,-0.04525,0.34157,0.15556,-0.35008,0.0,0.02698,-0.06243,0.0,-0.17645,0.35843,0.00205,-0.00416,0.10603,-0.23232,16.21
2.18,16.36144,-0.1075,-0.04657,14.93504,0.13133,0.05742,16.66667,0.0,0.0,6.85929,-0.102,-0.04532,0.34157,0.15581,-0.35066,0.0,0.02513,-0.05864,0.0,-0.18549,0.37871,0.00215,-0.00439,0.10729,-0.23537,16.36
2.19,16.51148,-0.1062,-0.046,15.00363,0.13031,0.05697,16.66667,0.0,0.0,6.85929,-0.10216,-0.04539,0.34157,0.15605,-0.35121,0.0,0.02319,-0.05466,0.0,-0.19407,0.3982,0.00225,-0.00462,0.1085,-0.2383,16.51
2.2,16.6622,-0.10491,-0.04544,15.07222,0.12929,0.05651,16.66667,0.0,0.0,6.85929,-0.10231,-0.04545,0.34157,0.15626,-0.35171,0.0,0.02117,-0.05049,0.0,-0.20217,0.41684,0.00235,-0.00484,0.10966,-0.24112,16.66
2.21,16.81361,-0.10363,-0.04488,15.14081,0.12827,0.05606,16.66667,0.0,0.0,6.85929,-0.10244,-0.04551,0.34156,0.15645,-0.35217,0.0,0.01907,-0.04614,0.0,-0.20979,0.43458,0.00243,-0.00504,0.11076,-0.24382,16.81
2.22,16.9657,-0.10235,-0.04432,15.20941,0.12724,0.0556,16.66667,0.0,0.0,6.85929,-0.10256,-0.04556,0.34156,0.15663,-0.35258,0.0,0.0169,-0.04163,0.0,-0.2169,0.45138,0.00252,-0.00524,0.11182,-0.2464,16.97
2.23,17.11848,-0.10109,-0.04377,15.278,0.12621,0.05515,16.66667,0.0,0.0,6.85929,-0.10267,-0.0456,0.34156,0.15677,-0.35295,0.0,0.01466,-0.03696,0.0,-0.22351,0.46721,0.00259,-0.00542,0.11282,-0.24887,17.12
2.24,17.27195,-0.09984,-0.04322,15.34659,0.12519,0.05469,16.66667,0.0,0.0,6.85929,-0.10276,-0.04564,0.34156,0.1569,-0.35327,0.0,0.01237,-0.03214,0.0,-0.2296,0.48204,0.00266,-0.00559,0.11378,-0.25122,17.27
2.25,17.4261,-0.0986,-0.04268,15.41519,0.12416,0.05423,16.66667,0.0,0.0,6.85929,-0.10284,-0.04567,0.34156,0.157,-0.35354,0.0,0.01002,-0.02718,0.0,-0.23518,0.49585,0.00273,-0.00575,0.11468,-0.25346,17.43
2.26,17.58094,-0.09737,-0.04214,15.48378,0.12313,0.05378,16.66667,0.0,0.0,6.85929,-0.10291,-0.04569,0.34156,0.15708,-0.35377,0.0,0.00761,-0.02209,0.0,-0.24024,0.50862,0.00279,-0.0059,0.11554,-0.25559,17.58
2.27,17.73646,-0.09615,-0.04161,15.55237,0.1221,0.05332,16.66667,0.0,0.0,6.85929,-0.10295,-0.04571,0.34156,0.15713,-0.35393,0.0,0.00517,-0.01689,0.0,-0.24478,0.52033,0.00284,-0.00604,0.11634,-0.25762,17.74
2.28,17.89267,-0.09493,-0.04108,15.62096,0.12107,0.05286,16.66667,0.0,0.0,6.85929,-0.10299,-0.04572,0.34156,0.15716,-0.35405,0.0,0.00268,-0.01158,0.0,-0.2488,0.53098,0.00289,-0.00616,0.11711,-0.25953,17.89
2.29,18.04957,-0.09373,-0.04056,15.68956,0.12004,0.0524,16.66667,0.0,0.0,6.85929,-0.10301,-0.04572,0.34156,0.15716,-0.35411,0.0,0.00015,-0.00617,0.0,-0.25232,0.54056,0.00293,-0.00627,0.11782,-0.26134,18.05
2.3,18.20715,-0.09254,-0.04004,15.75815,0.11901,0.05195,16.66667,0.0,0.0,6.85929,-0.10301,-0.04571,0.34156,0.15714,-0.35412,0.0,-0.0024,-0.00068,0.0,-0.25532,0.54908,0.00296,-0.00637,0.11849,-0.26304,18.21
2.31,18.36542,-0.09136,-0.03952,15.82674,0.11798,0.05149,16.66667,0.0,0.0,6.85929,-0.10299,-0.04569,0.34156,0.15709,-0.35407,0.0,-0.00498,0.00488,0.0,-0.25783,0.55653,0.00299,-0.00646,0.11911,-0.26464,18.37
2.32,18.52437,-0.09019,-0.03901,15.89534,0.11695,0.05103,16.66667,0.0,0.0,6.85929,-0.10296,-0.04567,0.34156,0.15701,-0.35397,0.0,-0.00758,0.01051,0.0,-0.25985,0.56293,0.00301,-0.00653,0.11969,-0.26614,18.52
2.33,18.68401,-0.08904,-0.0385,15.96393,0.11592,0.05058,16.66667,0.0,0.0,6.85929,-0.10292,-0.04564,0.34156,0.15691,-0.3538,0.0,-0.01019,0.0162,0.0,-0.26139,0.56828,0.00303,-0.00659,0.12023,-0.26754,18.68
2.34,18.84434,-0.08789,-0.038,16.03252,0.11489,0.05012,16.66667,0.0,0.0,6.85929,-0.10285,-0.04561,0.34156,0.15678,-0.35359,0.0,-0.01281,0.02192,0.0,-0.26245,0.57261,0.00304,-0.00664,0.12072,-0.26884,18.84
2.35,19.00535,-0.08675,-0.03751,16.10111,0.11386,0.04967,16.66667,0.0,0.0,6.85929,-0.10277,-0.04556,0.34156,0.15662,-0.35331,0.0,-0.01544,0.02768,0.0,-0.26306,0.57592,0.00305,-0.00668,0.12117,-0.27004,19.01
2.36,19.16704,-0.08562,-0.03701,16.16971,0.11284,0.04921,16.66667,0.0,0.0,6.85929,-0.10268,-0.04551,0.34156,0.15644,-0.35298,0.0,-0.01808,0.03346,0.0,-0.26322,0.57824,0.00305,-0.00671,0.12158,-0.27115,19.17
2.37,19.32943,-0.0845,-0.03653,16.2383,0.11181,0.04876,16.66667,0.0,0.0,6.85929,-0.10256,-0.04545,0.34156,0.15623,-0.35258,0.0,-0.02071,0.03926,0.0,-0.26295,0.57959,0.00305,-0.00672,0.12195,-0.27217,19.33
2.38,19.4925,-0.08339,-0.03604,16.30689,0.11079,0.0483,16.66667,0.0,0.0,6.85929,-0.10243,-0.04538,0.34156,0.15599,-0.35214,0.0,-0.02333,0.04506,0.0,-0.26226,0.57999,0.00304,-0.00673,0.12229,-0.27309,19.49
2.39,19.65625,-0.0823,-0.03557,16.37549,0.10976,0.04785,16.66667,0.0,0.0,6.85929,-0.10228,-0.0453,0.34157,0.15573,-0.35163,0.0,-0.02594,0.05085,0.0,-0.26117,0.57947,0.00303,-0.00672,0.12258,-0.27393,19.66
2.4,19.82069,-0.08121,-0.03509,16.44408,0.10874,0.0474,16.66667,0.0,0.0,6.85929,-0.10212,-0.04522,0.34157,0.15544,-0.35106,0.0,-0.02854,0.05663,0.0,-0.25969,0.57805,0.00301,-0.00671,0.12283,-0.27468,19.82
2.41,19.98582,-0.08013,-0.03462,16.51267,0.10772,0.04695,16.66667,0.0,0.0,6.85929,-0.10194,-0.04513,0.34157,0.15513,-0.35044,0.0,-0.03112,0.06239,0.0,-0.25784,0.57578,0.00299,-0.00668,0.12305,-0.27534,19.99
2.42,20.15163,-0.07906,-0.03416,16.58126,0.10671,0.0465,16.66667,0.0,0.0,6.8593,-0.10174,-0.04503,0.34157,0.15479,-0.34976,0.0,-0.03367,0.06812,0.0,-0.25563,0.57266,0.00297,-0.00664,0.12323,-0.27592,20.15
2.43,20.31813,-0.07801,-0.0337,16.64986,0.10569,0.04605,16.66667,0.0,0.0,6.8593,-0.10153,-0.04492,0.34157,0.15442,-0.34903,0.0,-0.0362,0.07381,0.0,-0.25308,0.56875,0.00294,-0.0066,0.12338,-0.27642,20.32
2.44,20.48531,-0.07696,-0.03324,16.71845,0.10468,0.0456,16.66667,0.0,0.0,6.8593,-0.1013,-0.04481,0.34157,0.15403,-0.34823,0.0,-0.03871,0.07945,0.0,-0.25021,0.56407,0.0029,-0.00654,0.12349,-0.27683,20.49
2.45,20.65318,-0.07592,-0.03279,16.78704,0.10367,0.04515,16.66667,0.0,0.0,6.8593,-0.10105,-0.04468,0.34158,0.15361,-0.34739,0.0,-0.04118,0.08503,0.0,-0.24703,0.55866,0.00287,-0.00648,0.12357,-0.27717,20.65
2.46,20.82174,-0.0749,-0.03234,16.85564,0.10266,0.04471,16.66667,0.0,0.0,6.8593,-0.10079,-0.04456,0.34158,0.15317,-0.34648,0.0,-0.04361,0.09056,0.0,-0.24356,0.55254,0.00283,-0.00641,0.12362,-0.27743,20.82
2.47,20.99098,-0.07388,-0.0319,16.92423,0.10165,0.04426,16.66667,0.0,0.0,6.8593,-0.10051,-0.04442,0.34158,0.15271,-0.34553,0.0,-0.04601,0.09602,0.0,-0.23982,0.54576,0.00278,-0.00633,0.12363,-0.27762,20.99
2.48,21.16091,-0.07287,-0.03146,16.99282,0.10065,0.04382,16.66667,0.0,0.0,6.85931,-0.10021,-0.04428,0.34158,0.15222,-0.34452,0.0,-0.04837,0.1014,0.0,-0.23583,0.53834,0.00274,-0.00624,0.12362,-0.27773,21.16
2.49,21.33153,-0.07188,-0.03103,17.06142,0.09965,0.04338,16.66667,0.0,0.0,6.85931,-0.0999,-0.04413,0.34159,0.1517,-0.34345,0.0,-0.05068,0.1067,0.0,-0.2316,0.53033,0.00269,-0.00615,0.12357,-0.27778,21.33
2.5,21.50283,-0.07089,-0.0306,17.13001,0.09866,0.04294,16.66667,0.0,0.0,6.85931,-0.09958,-0.04397,0.34159,0.15117,-0.34234,0.0,-0.05296,0.11192,0.0,-0.22714,0.52176,0.00263,-0.00605,0.1235,-0.27775,21.5
2.51,21.67481,-0.06991,-0.03017,17.1986,0.09766,0.0425,16.66667,0.0,0.0,6.85931,-0.09924,-0.04381,0.34159,0.15061,-0.34117,0.0,-0.05518,0.11705,0.0,-0.22248,0.51267,0.00258,-0.00595,0.12339,-0.27766,21.67
2.52,21.84748,-0.06895,-0.02975,17.26719,0.09668,0.04206,16.66667,0.0,0.0,6.85932,-0.09889,-0.04364,0.3416,0.15003,-0.33995,0.0,-0.05736,0.12208,0.0,-0.21763,0.50309,0.00252,-0.00584,0.12326,-0.2775,21.85
2.53,22.02084,-0.06799,-0.02934,17.33579,0.09569,0.04163,16.66667,0.0,0.0,6.85932,-0.09852,-0.04347,0.3416,0.14942,-0.33868,0.0,-0.05948,0.12701,0.0,-0.21261,0.49305,0.00247,-0.00572,0.1231,-0.27728,22.02
2.54,22.19489,-0.06704,-0.02892,17.40438,0.09471,0.0412,16.66667,0.0,0.0,6.85932,-0.09814,-0.04328,0.3416,0.1488,-0.33737,0.0,-0.06156,0.13183,0.0,-0.20743,0.48259,0.00241,-0.0056,0.12292,-0.277,22.19
2.55,22.36962,-0.06611,-0.02852,17.47297,0.09373,0.04076,16.66667,0.0,0.0,6.85932,-0.09774,-0.0431,0.34161,0.14816,-0.33601,0.0,-0.06358,0.13655,0.0,-0.20212,0.47175,0.00234,-0.00547,0.12271,-0.27666,22.37
2.56,22.54503,-0.06518,-0.02811,17.54157,0.09276,0.04034,16.66667,0.0,0.0,6.85933,-0.09733,-0.0429,0.34161,0.14749,-0.3346,0.0,-0.06554,0.14116,0.0,-0.19667,0.46056,0.00228,-0.00534,0.12248,-0.27625,22.55
2.57,22.72113,-0.06426,-0.02771,17.61016,0.09179,0.03991,16.66667,0.0,0.0,6.85933,-0.09691,-0.04271,0.34161,0.14681,-0.33315,0.0,-0.06746,0.14565,0.0,-0.19112,0.44904,0.00222,-0.00521,0.12222,-0.2758,22.72
2.58,22.89792,-0.06335,-0.02732,17.67875,0.09082,0.03948,16.66667,0.0,0.0,6.85933,-0.09647,-0.0425,0.34162,0.14611,-0.33165,0.0,-0.06931,0.15002,0.0,-0.18547,0.43725,0.00215,-0.00507,0.12194,-0.27529,22.9
2.59,23.07539,-0.06245,-0.02693,17.74735,0.08986,0.03906,16.66667,0.0,0.0,6.85934,-0.09603,-0.04229,0.34162,0.14539,-0.33011,0.0,-0.07111,0.15427,0.0,-0.17973,0.42519,0.00208,-0.00493,0.12164,-0.27472,23.08
2.6,23.25355,-0.06157,-0.02654,17.81594,0.08891,0.03864,16.66667,0.0,0.0,6.85934,-0.09557,-0.04208,0.34163,0.14465,-0.32853,0.0,-0.07285,0.1584,0.0,-0.17393,0.41292,0.00202,-0.00479,0.12132,-0.27411,23.25
2.61,23.4324,-0.06069,-0.02616,17.88453,0.08796,0.03822,16.66667,0.0,0.0,6.85934,-0.09509,-0.04186,0.34163,0.14389,-0.32691,0.0,-0.07453,0.16241,0.0,-0.16807,0.40045,0.00195,-0.00465,0.12097,-0.27344,23.43
2.62,23.61193,-0.05982,-0.02578,17.95313,0.08701,0.0378,16.66667,0.0,0.0,6.85935,-0.09461,-0.04163,0.34163,0.14312,-0.32526,0.0,-0.07615,0.16628,0.0,-0.16217,0.38782,0.00188,-0.0045,0.12061,-0.27273,23.61
2.63,23.79215,-0.05895,-0.02541,18.02172,0.08607,0.03739,16.66667,0.0,0.0,6.85935,-0.09412,-0.0414,0.34164,0.14234,-0.32356,0.0,-0.07771,0.17003,0.0,-0.15624,0.37506,0.00181,-0.00435,0.12023,-0.27197,23.79
2.64,23.97305,-0.0581,-0.02504,18.09032,0.08513,0.03698,16.66667,0.0,0.0,6.85935,-0.09362,-0.04117,0.34164,0.14153,-0.32183,0.0,-0.07921,0.17366,0.0,-0.15029,0.36219,0.00174,-0.0042,0.11983,-0.27116,23.97
2.65,24.15464,-0.05726,-0.02467,18.15891,0.0842,0.03657,16.66667,0.0,0.0,6.85936,-0.0931,-0.04093,0.34165,0.14072,-0.32006,0.0,-0.08066,0.17715,0.0,-0.14433,0.34924,0.00167,-0.00405,0.11941,-0.27031,24.15
2.66,24.33691,-0.05643,-0.02431,18.2275,0.08328,0.03616,16.66667,0.0,0.0,6.85936,-0.09258,-0.04069,0.34165,0.13989,-0.31826,0.0,-0.08204,0.18051,0.0,-0.13837,0.33623,0.00161,-0.0039,0.11897,-0.26942,24.34
2.67,24.51988,-0.0556,-0.02395,18.2961,0.08236,0.03576,16.66667,0.0,0.0,6.85936,-0.09204,-0.04045,0.34166,0.13904,-0.31643,0.0,-0.08337,0.18374,0.0,-0.13243,0.32319,0.00154,-0.00375,0.11852,-0.26849,24.52
2.68,24.70352,-0.05479,-0.0236,18.36469,0.08144,0.03536,16.66667,0.0,0.0,6.85937,-0.0915,-0.0402,0.34166,0.13818,-0.31457,0.0,-0.08463,0.18684,0.0,-0.12651,0.31015,0.00147,-0.0036,0.11805,-0.26752,24.7
2.69,24.88785,-0.05399,-0.02325,18.43328,0.08053,0.03496,16.66667,0.0,0.0,6.85937,-0.09095,-0.03994,0.34166,0.13731,-0.31267,0.0,-0.08584,0.18982,0.0,-0.12062,0.29712,0.0014,-0.00345,0.11756,-0.26652,24.89
2.7,25.07287,-0.05319,-0.0229,18.50188,0.07963,0.03456,16.66667,0.0,0.0,6.85937,-0.09039,-0.03969,0.34167,0.13643,-0.31075,0.0,-0.08699,0.19266,0.0,-0.11478,0.28413,0.00133,-0.0033,0.11707,-0.26548,25.07
2.71,25.25858,-0.0524,-0.02256,18.57047,0.07873,0.03417,16.66667,0.0,0.0,6.85938,-0.08983,-0.03943,0.34167,0.13554,-0.3088,0.0,-0.08808,0.19537,0.0,-0.10898,0.27119,0.00126,-0.00315,0.11655,-0.2644,25.26
2.72,25.44497,-0.05162,-0.02223,18.63906,0.07784,0.03377,16.66667,0.0,0.0,6.85938,-0.08925,-0.03916,0.34168,0.13464,-0.30683,0.0,-0.08911,0.19795,0.0,-0.10324,0.25834,0.0012,-0.003,0.11603,-0.26329,25.44
2.73,25.63205,-0.05085,-0.02189,18.70766,0.07695,0.03339,16.66667,0.0,0.0,6.85939,-0.08867,-0.0389,0.34168,0.13372,-0.30483,0.0,-0.09008,0.20041,0.0,-0.09756,0.24557,0.00113,-0.00285,0.11549,-0.26215,25.63
2.74,25.81981,-0.05009,-0.02156,18.77625,0.07607,0.033,16.66667,0.0,0.0,6.85939,-0.08808,-0.03863,0.34169,0.1328,-0.30281,0.0,-0.091,0.20274,0.0,-0.09196,0.23292,0.00107,-0.0027,0.11494,-0.26098,25.82
2.75,26.00826,-0.04934,-0.02124,18.84485,0.0752,0.03262,16.66667,0.0,0.0,6.85939,-0.08749,-0.03836,0.34169,0.13187,-0.30076,0.0,-0.09187,0.20494,0.0,-0.08643,0.2204,0.001,-0.00256,0.11437,-0.25978,26.01
2.76,26.19739,-0.0486,-0.02091,18.91344,0.07433,0.03223,16.66667,0.0,0.0,6.8594,-0.08689,-0.03809,0.3417,0.13093,-0.2987,0.0,-0.09268,0.20702,0.0,-0.08098,0.20802,0.00094,-0.00241,0.1138,-0.25855,26.2
2.77,26.38721,-0.04786,-0.02059,18.98203,0.07346,0.03186,16.66667,0.0,0.0,6.8594,-0.08628,-0.03781,0.3417,0.12999,-0.29662,0.0,-0.09343,0.20898,0.0,-0.07562,0.1958,0.00088,-0.00227,0.11321,-0.25729,26.39
2.78,26.57772,-0.04714,-0.02028,19.05063,0.07261,0.03148,16.66667,0.0,0.0,6.8594,-0.08567,-0.03753,0.34171,0.12903,-0.29451,0.0,-0.09414,0.21082,0.0,-0.07036,0.18375,0.00082,-0.00213,0.11262,-0.25601,26.58
2.79,26.76891,-0.04642,-0.01997,19.11922,0.07176,0.03111,16.66667,0.0,0.0,6.85941,-0.08505,-0.03725,0.34171,0.12807,-0.29239,0.0,-0.09479,0.21254,0.0,-0.06519,0.17189,0.00076,-0.00199,0.11201,-0.2547,26.77
2.8,26.96079,-0.04571,-0.01966,19.18782,0.07091,0.03074,16.66667,0.0,0.0,6.85941,-0.08443,-0.03697,0.34172,0.1271,-0.29026,0.0,-0.09539,0.21414,0.0,-0.06012,0.16021,0.0007,-0.00186,0.1114,-0.25337,26.96
2.81,27.15335,-0.04501,-0.01936,19.25641,0.07007,0.03037,16.66667,0.0,0.0,6.85942,-0.08381,-0.03669,0.34172,0.12613,-0.28811,0.0,-0.09594,0.21563,0.0,-0.05516,0.14874,0.00064,-0.00173,0.11078,-0.25202,27.15
2.82,27.3466,-0.04432,-0.01906,19.325,0.06924,0.03001,16.66667,0.0,0.0,6.85942,-0.08318,-0.03641,0.34173,0.12515,-0.28594,0.0,-0.09644,0.217,0.0,-0.05031,0.13749,0.00058,-0.00159,0.11014,-0.25065,27.35
2.83,27.54054,-0.04363,-0.01876,19.3936,0.06842,0.02965,16.66667,0.0,0.0,6.85942,-0.08254,-0.03612,0.34173,0.12417,-0.28377,0.0,-0.0969,0.21827,0.0,-0.04557,0.12646,0.00053,-0.00147,0.1095,-0.24925,27.54
2.84,27.73516,-0.04296,-0.01847,19.46219,0.0676,0.02929,16.66667,0.0,0.0,6.85943,-0.08191,-0.03583,0.34174,0.12319,-0.28158,0.0,-0.09731,0.21942,0.0,-0.04094,0.11565,0.00047,-0.00134,0.10886,-0.24784,27.74
2.85,27.93047,-0.04229,-0.01818,19.53079,0.06679,0.02893,16.66667,0.0,0.0,6.85943,-0.08127,-0.03555,0.34174,0.1222,-0.27938,0.0,-0.09767,0.22047,0.0,-0.03643,0.10508,0.00042,-0.00122,0.1082,-0.24641,27.93
2.86,28.12646,-0.04163,-0.01789,19.59938,0.06598,0.02858,16.66667,0.0,0.0,6.85943,-0.08062,-0.03526,0.34174,0.1212,-0.27717,0.0,-0.09799,0.22142,0.0,-0.03203,0.09476,0.00037,-0.0011,0.10754,-0.24496,28.13
2.87,28.32314,-0.04098,-0.01761,19.66798,0.06518,0.02823,16.66667,0.0,0.0,6.85944,-0.07998,-0.03497,0.34175,0.12021,-0.27495,0.0,-0.09827,0.22227,0.0,-0.02776,0.08468,0.00032,-0.00098,0.10687,-0.2435,28.32
2.88,28.52051,-0.04033,-0.01733,19.73657,0.06439,0.02788,16.66667,0.0,0.0,6.85944,-0.07933,-0.03468,0.34175,0.11921,-0.27273,0.0,-0.09851,0.22302,0.0,-0.0236,0.07485,0.00027,-0.00087,0.1062,-0.24202,28.52
2.89,28.71856,-0.0397,-0.01706,19.80517,0.0636,0.02754,16.66667,0.0,0.0,6.85945,-0.07868,-0.03439,0.34176,0.11821,-0.2705,0.0,-0.0987,0.22367,0.0,-0.01957,0.06528,0.00023,-0.00076,0.10552,-0.24052,28.72
2.9,28.9173,-0.03907,-0.01678,19.87376,0.06282,0.0272,16.66667,0.0,0.0,6.85945,-0.07803,-0.03409,0.34176,0.11721,-0.26826,0.0,-0.09886,0.22423,0.0,-0.01565,0.05597,0.00018,-0.00065,0.10484,-0.23902,28.92
2.91,29.11672,-0.03845,-0.01652,19.94235,0.06205,0.02686,16.66667,0.0,0.0,6.85945,-0.07738,-0.0338,0.34177,0.1162,-0.26602,0.0,-0.09898,0.2247,0.0,-0.01186,0.04691,0.00014,-0.00054,0.10415,-0.23749,29.12
2.92,29.31683,-0.03784,-0.01625,20.01095,0.06128,0.02653,16.66667,0.0,0.0,6.85946,-0.07673,-0.03351,0.34177,0.1152,-0.26378,0.0,-0.09906,0.22508,0.0,-0.00819,0.03812,0.0001,-0.00044,0.10345,-0.23596,29.32
2.93,29.51762,-0.03723,-0.01599,20.07954,0.06052,0.02619,16.66667,0.0,0.0,6.85946,-0.07608,-0.03322,0.34178,0.1142,-0.26153,0.0,-0.09911,0.22537,0.0,-0.00464,0.02959,5e-05,-0.00034,0.10275,-0.23442,29.52
2.94,29.71911,-0.03663,-0.01573,20.14814,0.05976,0.02586,16.66667,0.0,0.0,6.85946,-0.07542,-0.03293,0.34178,0.11319,-0.25928,0.0,-0.09912,0.22559,0.0,-0.00121,0.02132,1e-05,-0.00025,0.10205,-0.23286,29.72
2.95,29.92127,-0.03604,-0.01547,20.21673,0.05902,0.02554,16.66667,0.0,0.0,6.85947,-0.07477,-0.03263,0.34179,0.11219,-0.25703,0.0,-0.0991,0.22572,0.0,0.0021,0.01332,-2e-05,-0.00015,0.10134,-0.23129,29.92
2.96,30.12413,-0.03546,-0.01522,20.28533,0.05827,0.02521,16.66667,0.0,0.0,6.85947,-0.07411,-0.03234,0.34179,0.11118,-0.25478,0.0,-0.09905,0.22578,0.0,0.00529,0.00558,-6e-05,-6e-05,0.10064,-0.22972,30.12
2.97,30.32767,-0.03489,-0.01497,20.35392,0.05754,0.02489,16.66667,0.0,0.0,6.85947,-0.07346,-0.03205,0.34179,0.11018,-0.25252,0.0,-0.09896,0.22576,0.0,0.00836,-0.0019,-0.0001,2e-05,0.09992,-0.22813,30.33
2.98,30.53189,-0.03432,-0.01473,20.42252,0.05681,0.02458,16.66667,0.0,0.0,6.85948,-0.0728,-0.03176,0.3418,0.10918,-0.25027,0.0,-0.09885,0.22567,0.0,0.01132,-0.00912,-0.00013,0.00011,0.09921,-0.22654,30.53
2.99,30.7368,-0.03376,-0.01449,20.49111,0.05609,0.02426,16.66667,0.0,0.0,6.85948,-0.07215,-0.03147,0.3418,0.10818,-0.24802,0.0,-0.09871,0.22551,0.0,0.01416,-0.01609,-0.00016,0.00019,0.09849,-0.22494,30.74
3.0,30.9424,-0.0332,-0.01425,20.55971,0.05538,0.02395,16.66667,0.0,0.0,6.85948,-0.07149,-0.03118,0.34181,0.10718,-0.24578,0.0,-0.09854,0.22528,0.0,0.01688,-0.0228,-0.0002,0.00026,0.09777,-0.22334,30.94
3.01,31.14868,-0.03266,-0.01401,20.6283,0.05467,0.02364,16.66667,0.0,0.0,6.85949,-0.07084,-0.03089,0.34181,0.10618,-0.24353,0.0,-0.09834,0.22498,0.0,0.0195,-0.02925,-0.00023,0.00034,0.09705,-0.22173,31.15
3.02,31.35565,-0.03212,-0.01378,20.6969,0.05396,0.02334,16.66667,0.0,0.0,6.85949,-0.07019,-0.0306,0.34182,0.10519,-0.24129,0.0,-0.09812,0.22463,0.0,0.02201,-0.03546,-0.00026,0.00041,0.09632,-0.22011,31.36
3.03,31.56331,-0.03158,-0.01355,20.76549,0.05327,0.02303,16.66667,0.0,0.0,6.85949,-0.06954,-0.03031,0.34182,0.10419,-0.23906,0.0,-0.09788,0.22422,0.0,0.0244,-0.04142,-0.00028,0.00048,0.09559,-0.21849,31.56
3.04,31.77165,-0.03106,-0.01332,20.83409,0.05258,0.02273,16.66667,0.0,0.0,6.8595,-0.06889,-0.03002,0.34182,0.10321,-0.23682,0.0,-0.09761,0.22374,0.0,0.0267,-0.04714,-0.00031,0.00055,0.09487,-0.21686,31.77
3.05,31.98067,-0.03054,-0.01309,20.90268,0.0519,0.02243,16.66667,0.0,0.0,6.8595,-0.06824,-0.02973,0.34183,0.10222,-0.2346,0.0,-0.09732,0.22322,0.0,0.02888,-0.05262,-0.00034,0.00061,0.09414,-0.21523,31.98
3.06,32.19039,-0.03003,-0.01287,20.97128,0.05122,0.02214,16.66667,0.0,0.0,6.8595,-0.0676,-0.02945,0.34183,0.10124,-0.23238,0.0,-0.09701,0.22264,0.0,0.03097,-0.05787,-0.00036,0.00067,0.09341,-0.21359,32.19
3.07,32.40079,-0.02952,-0.01265,21.03987,0.05055,0.02185,16.66667,0.0,0.0,6.85951,-0.06695,-0.02916,0.34184,0.10026,-0.23016,0.0,-0.09668,0.22201,0.0,0.03296,-0.06289,-0.00038,0.00073,0.09268,-0.21196,32.4
3.08,32.61187,-0.02902,-0.01244,21.10847,0.04989,0.02156,16.66667,0.0,0.0,6.85951,-0.06631,-0.02888,0.34184,0.09928,-0.22796,0.0,-0.09634,0.22133,0.0,0.03485,-0.06769,-0.0004,0.00079,0.09195,-0.21032,32.61
3.09,32.82364,-0.02853,-0.01223,21.17706,0.04923,0.02127,16.66667,0.0,0.0,6.85951,-0.06567,-0.0286,0.34184,0.09831,-0.22576,0.0,-0.09597,0.22061,0.0,0.03665,-0.07226,-0.00043,0.00084,0.09121,-0.20868,32.82
3.1,33.0361,-0.02804,-0.01202,21.24566,0.04858,0.02099,16.66667,0.0,0.0,6.85952,-0.06503,-0.02831,0.34185,0.09734,-0.22356,0.0,-0.09559,0.21984,0.0,0.03836,-0.07663,-0.00044,0.00089,0.09048,-0.20703,33.04
3.11,33.24924,-0.02756,-0.01181,21.31425,0.04794,0.02071,16.66667,0.0,0.0,6.85952,-0.0644,-0.02803,0.34185,0.09637,-0.22138,0.0,-0.09519,0.21904,0.0,0.03998,-0.08078,-0.00046,0.00094,0.08975,-0.20539,33.25
3.12,33.46307,-0.02709,-0.0116,21.38285,0.0473,0.02043,16.66667,0.0,0.0,6.85952,-0.06376,-0.02775,0.34185,0.09541,-0.2192,0.0,-0.09477,0.21819,0.0,0.04151,-0.08473,-0.00048,0.00098,0.08902,-0.20374,33.46
3.13,33.67758,-0.02662,-0.0114,21.45144,0.04667,0.02016,16.66667,0.0,0.0,6.85952,-0.06313,-0.02748,0.34186,0.09445,-0.21703,0.0,-0.09434,0.2173,0.0,0.04296,-0.08848,-0.0005,0.00103,0.08829,-0.2021,33.68
3.14,33.89278,-0.02616,-0.0112,21.52004,0.04604,0.01989,16.66667,0.0,0.0,6.85953,-0.0625,-0.0272,0.34186,0.0935,-0.21488,0.0,-0.0939,0.21638,0.0,0.04432,-0.09204,-0.00051,0.00107,0.08755,-0.20045,33.89
3.15,34.10867,-0.02571,-0.01101,21.58863,0.04543,0.01962,16.66667,0.0,0.0,6.85953,-0.06188,-0.02692,0.34187,0.09256,-0.21273,0.0,-0.09344,0.21543,0.0,0.04561,-0.09541,-0.00053,0.00111,0.08682,-0.1988,34.11
3.16,34.32524,-0.02526,-0.01081,21.65723,0.04481,0.01935,16.66667,0.0,0.0,6.85953,-0.06126,-0.02665,0.34187,0.09161,-0.21059,0.0,-0.09297,0.21444,0.0,0.04682,-0.0986,-0.00054,0.00114,0.08609,-0.19716,34.33
3.17,34.5425,-0.02482,-0.01062,21.72582,0.04421,0.01909,16.66667,0.0,0.0,6.85954,-0.06064,-0.02638,0.34187,0.09068,-0.20846,0.0,-0.09249,0.21343,0.0,0.04796,-0.10161,-0.00056,0.00118,0.08536,-0.19551,34.54
3.18,34.76044,-0.02438,-0.01044,21.79442,0.04361,0.01883,16.66667,0.0,0.0,6.85954,-0.06002,-0.02611,0.34188,0.08974,-0.20634,0.0,-0.092,0.21238,0.0,0.04903,-0.10446,-0.00057,0.00121,0.08463,-0.19387,34.76
3.19,34.97907,-0.02395,-0.01025,21.86301,0.04301,0.01857,16.66667,0.0,0.0,6.85954,-0.05941,-0.02584,0.34188,0.08882,-0.20423,0.0,-0.0915,0.21131,0.0,0.05003,-0.10713,-0.00058,0.00124,0.0839,-0.19223,34.98
3.2,35.19839,-0.02353,-0.01007,21.93161,0.04242,0.01831,16.66667,0.0,0.0,6.85954,-0.0588,-0.02557,0.34188,0.08789,-0.20214,0.0,-0.09099,0.21022,0.0,0.05097,-0.10965,-0.00059,0.00127,0.08318,-0.19059,35.2
3.21,35.41839,-0.02311,-0.00989,22.00021,0.04184,0.01806,16.66667,0.0,0.0,6.85955,-0.05819,-0.0253,0.34188,0.08698,-0.20005,0.0,-0.09047,0.2091,0.0,0.05184,-0.11202,-0.0006,0.0013,0.08245,-0.18895,35.42
3.22,35.63908,-0.0227,-0.00971,22.0688,0.04127,0.01781,16.66667,0.0,0.0,6.85955,-0.05759,-0.02503,0.34189,0.08606,-0.19798,0.0,-0.08995,0.20795,0.0,0.05265,-0.11423,-0.00061,0.00133,0.08173,-0.18732,35.64
3.23,35.86045,-0.02229,-0.00953,22.1374,0.0407,0.01756,16.66667,0.0,0.0,6.85955,-0.05699,-0.02477,0.34189,0.08516,-0.19592,0.0,-0.08941,0.20679,0.0,0.0534,-0.11631,-0.00062,0.00135,0.08101,-0.18568,35.86
3.24,36.08251,-0.02189,-0.00936,22.20599,0.04013,0.01732,16.66667,0.0,0.0,6.85955,-0.05639,-0.02451,0.34189,0.08426,-0.19386,0.0,-0.08887,0.20561,0.0,0.0541,-0.11824,-0.00063,0.00137,0.08028,-0.18405,36.08
3.25,36.30526,-0.02149,-0.00919,22.27459,0.03957,0.01707,16.66667,0.0,0.0,6.85956,-0.0558,-0.02425,0.3419,0.08336,-0.19183,0.0,-0.08833,0.20441,0.0,0.05474,-0.12005,-0.00064,0.00139,0.07957,-0.18243,36.31
3.26,36.52869,-0.0211,-0.00902,22.34318,0.03902,0.01683,16.66667,0.0,0.0,6.85956,-0.05521,-0.02399,0.3419,0.08247,-0.1898,0.0,-0.08777,0.20319,0.0,0.05534,-0.12172,-0.00064,0.00141,0.07885,-0.18081,36.53
3.27,36.75281,-0.02072,-0.00885,22.41178,0.03848,0.0166,16.66667,0.0,0.0,6.85956,-0.05462,-0.02373,0.3419,0.08159,-0.18778,0.0,-0.08721,0.20196,0.0,0.05588,-0.12328,-0.00065,0.00143,0.07813,-0.17919,36.75
3.28,36.97761,-0.02034,-0.00869,22.48037,0.03794,0.01636,16.66667,0.0,0.0,6.85956,-0.05404,-0.02348,0.34191,0.08071,-0.18578,0.0,-0.08665,0.20071,0.0,0.05638,-0.12472,-0.00065,0.00145,0.07742,-0.17757,36.98
3.29,37.2031,-0.01997,-0.00853,22.54897,0.0374,0.01613,16.66667,0.0,0.0,6.85956,-0.05346,-0.02322,0.34191,0.07984,-0.18379,0.0,-0.08608,0.19945,0.0,0.05683,-0.12604,-0.00066,0.00146,0.07671,-0.17596,37.2
3.3,37.42928,-0.0196,-0.00837,22.61757,0.03687,0.0159,16.66667,0.0,0.0,6.85957,-0.05289,-0.02297,0.34191,0.07897,-0.18182,0.0,-0.08551,0.19818,0.0,0.05724,-0.12726,-0.00066,0.00148,0.076,-0.17436,37.43
3.31,37.65614,-0.01923,-0.00821,22.68616,0.03635,0.01567,16.66667,0.0,0.0,6.85957,-0.05232,-0.02272,0.34191,0.07811,-0.17985,0.0,-0.08493,0.19689,0.0,0.05761,-0.12838,-0.00067,0.00149,0.07529,-0.17275,37.66
3.32,37.88369,-0.01888,-0.00806,22.75476,0.03583,0.01545,16.66667,0.0,0.0,6.85957,-0.05175,-0.02247,0.34192,0.07725,-0.1779,0.0,-0.08435,0.1956,0.0,0.05795,-0.1294,-0.00067,0.0015,0.07458,-0.17116,37.88
3.33,38.11192,-0.01852,-0.00791,22.82335,0.03532,0.01522,16.66667,0.0,0.0,6.85957,-0.05119,-0.02222,0.34192,0.0764,-0.17596,0.0,-0.08377,0.1943,0.0,0.05824,-0.13033,-0.00068,0.00151,0.07388,-0.16957,38.11
3.34,38.34084,-0.01817,-0.00776,22.89195,0.03481,0.01501,16.66667,0.0,0.0,6.85958,-0.05063,-0.02198,0.34192,0.07556,-0.17404,0.0,-0.08319,0.19298,0.0,0.05851,-0.13117,-0.00068,0.00152,0.07318,-0.16798,38.34
3.35,38.57045,-0.01783,-0.00761,22.96054,0.03431,0.01479,16.66667,0.0,0.0,6.85958,-0.05007,-0.02174,0.34192,0.07472,-0.17213,0.0,-0.0826,0.19167,0.0,0.05874,-0.13192,-0.00068,0.00153,0.07249,-0.1664,38.57
3.36,38.80074,-0.01749,-0.00746,23.02914,0.03382,0.01457,16.66667,0.0,0.0,6.85958,-0.04952,-0.02149,0.34193,0.07389,-0.17023,0.0,-0.08201,0.19034,0.0,0.05894,-0.1326,-0.00068,0.00154,0.07179,-0.16482,38.8
3.37,39.03172,-0.01716,-0.00732,23.09774,0.03333,0.01436,16.66667,0.0,0.0,6.85958,-0.04897,-0.02125,0.34193,0.07307,-0.16834,0.0,-0.08142,0.18901,0.0,0.05911,-0.1332,-0.00069,0.00155,0.0711,-0.16325,39.03
3.38,39.26338,-0.01683,-0.00718,23.16633,0.03284,0.01415,16.66667,0.0,0.0,6.85958,-0.04842,-0.02102,0.34193,0.07225,-0.16647,0.0,-0.08083,0.18767,0.0,0.05925,-0.13373,-0.00069,0.00155,0.07041,-0.16169,39.26
3.39,39.49573,-0.01651,-0.00704,23.23493,0.03237,0.01394,16.66667,0.0,0.0,6.85958,-0.04788,-0.02078,0.34193,0.07143,-0.16461,0.0,-0.08023,0.18633,0.0,0.05937,-0.13419,-0.00069,0.00156,0.06972,-0.16013,39.5
3.4,39.72876,-0.01619,-0.0069,23.30352,0.03189,0.01374,16.66667,0.0,0.0,6.85959,-0.04735,-0.02054,0.34194,0.07063,-0.16277,0.0,-0.07964,0.18498,0.0,0.05946,-0.13458,-0.00069,0.00156,0.06904,-0.15858,39.73
3.41,39.96248,-0.01587,-0.00677,23.37212,0.03142,0.01353,16.66667,0.0,0.0,6.85959,-0.04681,-0.02031,0.34194,0.06982,-0.16094,0.0,-0.07904,0.18363,0.0,0.05953,-0.13491,-0.00069,0.00157,0.06836,-0.15703,39.96
3.42,40.19689,-0.01556,-0.00663,23.44072,0.03096,0.01333,16.66667,0.0,0.0,6.85959,-0.04629,-0.02008,0.34194,0.06903,-0.15912,0.0,-0.07845,0.18228,0.0,0.05958,-0.13519,-0.00069,0.00157,0.06768,-0.15549,40.2
3.43,40.43198,-0.01526,-0.0065,23.50931,0.0305,0.01313,16.66667,0.0,0.0,6.85959,-0.04576,-0.01985,0.34194,0.06824,-0.15731,0.0,-0.07785,0.18093,0.0,0.0596,-0.13541,-0.00069,0.00157,0.06701,-0.15396,40.43
3.44,40.66776,-0.01496,-0.00637,23.57791,0.03005,0.01294,16.66667,0.0,0.0,6.85959,-0.04524,-0.01962,0.34194,0.06746,-0.15552,0.0,-0.07725,0.17957,0.0,0.05961,-0.13558,-0.00069,0.00157,0.06633,-0.15244,40.67
3.45,40.90423,-0.01466,-0.00624,23.6465,0.0296,0.01274,16.66667,0.0,0.0,6.8596,-0.04472,-0.0194,0.34195,0.06668,-0.15375,0.0,-0.07666,0.17821,0.0,0.0596,-0.1357,-0.00069,0.00157,0.06567,-0.15092,40.9
3.46,41.14138,-0.01437,-0.00612,23.7151,0.02916,0.01255,16.66667,0.0,0.0,6.8596,-0.04421,-0.01917,0.34195,0.06591,-0.15198,0.0,-0.07606,0.17686,0.0,0.05958,-0.13578,-0.00069,0.00158,0.065,-0.1494,41.14
3.47,41.37922,-0.01408,-0.006,23.78369,0.02872,0.01236,16.66667,0.0,0.0,6.8596,-0.0437,-0.01895,0.34195,0.06514,-0.15023,0.0,-0.07547,0.1755,0.0,0.05954,-0.13582,-0.00069,0.00158,0.06434,-0.1479,41.38
3.48,41.61774,-0.0138,-0.00587,23.85229,0.02829,0.01218,16.66667,0.0,0.0,6.8596,-0.0432,-0.01873,0.34195,0.06438,-0.14849,0.0,-0.07487,0.17414,0.0,0.05948,-0.13581,-0.00069,0.00158,0.06368,-0.1464,41.62
3.49,41.85695,-0.01352,-0.00575,23.92089,0.02787,0.01199,16.66667,0.0,0.0,6.8596,-0.04269,-0.01851,0.34195,0.06363,-0.14677,0.0,-0.07428,0.17278,0.0,0.05941,-0.13577,-0.00069,0.00157,0.06302,-0.14491,41.86
3.5,42.09684,-0.01325,-0.00564,23.98948,0.02744,0.01181,16.66667,0.0,0.0,6.8596,-0.0422,-0.01829,0.34196,0.06288,-0.14506,0.0,-0.07368,0.17143,0.0,0.05933,-0.13569,-0.00069,0.00157,0.06237,-0.14343,42.1
3.51,42.33742,-0.01298,-0.00552,24.05808,0.02703,0.01163,16.66667,0.0,0.0,6.8596,-0.0417,-0.01808,0.34196,0.06214,-0.14337,0.0,-0.07309,0.17007,0.0,0.05924,-0.13557,-0.00069,0.00157,0.06172,-0.14195,42.34
3.52,42.57869,-0.01271,-0.0054,24.12668,0.02661,0.01145,16.66667,0.0,0.0,6.85961,-0.04121,-0.01786,0.34196,0.06141,-0.14168,0.0,-0.0725,0.16872,0.0,0.05914,-0.13543,-0.00069,0.00157,0.06108,-0.14049,42.58
3.53,42.82064,-0.01245,-0.00529,24.19527,0.02621,0.01127,16.66667,0.0,0.0,6.85961,-0.04073,-0.01765,0.34196,0.06068,-0.14001,0.0,-0.07191,0.16736,0.0,0.05902,-0.13526,-0.00068,0.00157,0.06044,-0.13903,42.82
3.54,43.06328,-0.01219,-0.00518,24.26387,0.0258,0.0111,16.66667,0.0,0.0,6.85961,-0.04025,-0.01744,0.34196,0.05996,-0.13836,0.0,-0.07132,0.16601,0.0,0.0589,-0.13506,-0.00068,0.00157,0.0598,-0.13757,43.06
3.55,43.30661,-0.01194,-0.00507,24.33246,0.02541,0.01093,16.66667,0.0,0.0,6.85961,-0.03977,-0.01723,0.34197,0.05924,-0.13671,0.0,-0.07073,0.16466,0.0,0.05877,-0.13484,-0.00068,0.00156,0.05917,-0.13613,43.31
3.56,43.55062,-0.01169,-0.00496,24.40106,0.02501,0.01075,16.66667,0.0,0.0,6.85961,-0.03929,-0.01702,0.34197,0.05853,-0.13509,0.0,-0.07015,0.16332,0.0,0.05862,-0.13459,-0.00068,0.00156,0.05853,-0.13469,43.55
3.57,43.79531,-0.01144,-0.00486,24.46966,0.02463,0.01059,16.66667,0.0,0.0,6.85961,-0.03882,-0.01682,0.34197,0.05782,-0.13347,0.0,-0.06956,0.16198,0.0,0.05848,-0.13432,-0.00068,0.00156,0.05791,-0.13327,43.8
3.58,44.0407,-0.0112,-0.00475,24.53825,0.02424,0.01042,16.66667,0.0,0.0,6.85961,-0.03836,-0.01662,0.34197,0.05712,-0.13187,0.0,-0.06898,0.16063,0.0,0.05832,-0.13403,-0.00068,0.00155,0.05728,-0.13185,44.04
3.59,44.28676,-0.01096,-0.00465,24.60685,0.02386,0.01026,16.66667,0.0,0.0,6.85962,-0.0379,-0.01641,0.34197,0.05643,-0.13028,0.0,-0.0684,0.1593,0.0,0.05816,-0.13372,-0.00067,0.00155,0.05667,-0.13043,44.29
3.6,44.53352,-0.01073,-0.00455,24.67544,0.02349,0.01009,16.66667,0.0,0.0,6.85962,-0.03744,-0.01621,0.34197,0.05574,-0.1287,0.0,-0.06782,0.15796,0.0,0.05799,-0.13339,-0.00067,0.00155,0.05605,-0.12903,44.53
3.61,44.78096,-0.01049,-0.00445,24.74404,0.02312,0.00993,16.66667,0.0,0.0,6.85962,-0.03698,-0.01602,0.34198,0.05506,-0.12714,0.0,-0.06724,0.15663,0.0,0.05782,-0.13305,-0.00067,0.00154,0.05544,-0.12764,44.78
3.62,45.02909,-0.01027,-0.00435,24.81264,0.02275,0.00978,16.66667,0.0,0.0,6.85962,-0.03653,-0.01582,0.34198,0.05438,-0.12559,0.0,-0.06666,0.15531,0.0,0.05765,-0.13269,-0.00067,0.00154,0.05483,-0.12625,45.03
3.63,45.2779,-0.01004,-0.00426,24.88123,0.02239,0.00962,16.66667,0.0,0.0,6.85962,-0.03609,-0.01562,0.34198,0.05371,-0.12406,0.0,-0.06609,0.15398,0.0,0.05746,-0.13232,-0.00067,0.00153,0.05422,-0.12487,45.28
3.64,45.5274,-0.00982,-0.00416,24.94983,0.02204,0.00947,16.66667,0.0,0.0,6.85962,-0.03564,-0.01543,0.34198,0.05305,-0.12253,0.0,-0.06552,0.15266,0.0,0.05728,-0.13194,-0.00066,0.00153,0.05362,-0.1235,45.53
3.65,45.77758,-0.00961,-0.00407,25.01843,0.02168,0.00931,16.66667,0.0,0.0,6.85962,-0.0352,-0.01524,0.34198,0.05239,-0.12102,0.0,-0.06495,0.15135,0.0,0.05709,-0.13154,-0.00066,0.00153,0.05303,-0.12214,45.78
3.66,46.02845,-0.00939,-0.00398,25.08702,0.02134,0.00916,16.66667,0.0,0.0,6.85962,-0.03477,-0.01505,0.34198,0.05174,-0.11953,0.0,-0.06438,0.15004,0.0,0.05689,-0.13113,-0.00066,0.00152,0.05243,-0.12079,46.03
3.67,46.28001,-0.00918,-0.00389,25.15562,0.02099,0.00901,16.66667,0.0,0.0,6.85962,-0.03434,-0.01486,0.34198,0.05109,-0.11804,0.0,-0.06381,0.14873,0.0,0.0567,-0.13071,-0.00066,0.00152,0.05185,-0.11945,46.28
3.68,46.53225,-0.00898,-0.0038,25.22421,0.02065,0.00887,16.66667,0.0,0.0,6.85963,-0.03391,-0.01468,0.34199,0.05045,-0.11657,0.0,-0.06324,0.14743,0.0,0.05649,-0.13028,-0.00066,0.00151,0.05126,-0.11811,46.53
3.69,46.78518,-0.00877,-0.00371,25.29281,0.02032,0.00872,16.66667,0.0,0.0,6.85963,-0.03349,-0.01449,0.34199,0.04981,-0.11512,0.0,-0.06268,0.14613,0.0,0.05629,-0.12984,-0.00065,0.00151,0.05068,-0.11679,46.79
3.7,47.03879,-0.00857,-0.00363,25.36141,0.01999,0.00858,16.66667,0.0,0.0,6.85963,-0.03307,-0.01431,0.34199,0.04918,-0.11367,0.0,-0.06212,0.14483,0.0,0.05609,-0.12939,-0.00065,0.0015,0.0501,-0.11547,47.04
3.71,47.29309,-0.00838,-0.00354,25.43,0.01966,0.00844,16.66667,0.0,0.0,6.85963,-0.03265,-0.01413,0.34199,0.04856,-0.11224,0.0,-0.06156,0.14355,0.0,0.05588,-0.12894,-0.00065,0.0015,0.04953,-0.11416,47.29
3.72,47.54808,-0.00818,-0.00346,25.4986,0.01934,0.0083,16.66667,0.0,0.0,6.85963,-0.03224,-0.01395,0.34199,0.04794,-0.11082,0.0,-0.06101,0.14226,0.0,0.05567,-0.12848,-0.00065,0.00149,0.04896,-0.11286,47.55
3.73,47.80375,-0.00799,-0.00338,25.5672,0.01902,0.00816,16.66667,0.0,0.0,6.85963,-0.03183,-0.01377,0.34199,0.04733,-0.10941,0.0,-0.06045,0.14098,0.0,0.05545,-0.12801,-0.00064,0.00148,0.0484,-0.11157,47.8
3.74,48.06011,-0.00781,-0.0033,25.63579,0.01871,0.00802,16.66667,0.0,0.0,6.85963,-0.03142,-0.01359,0.34199,0.04672,-0.10802,0.0,-0.0599,0.13971,0.0,0.05524,-0.12753,-0.00064,0.00148,0.04784,-0.11029,48.06
3.75,48.31715,-0.00762,-0.00322,25.70439,0.0184,0.00789,16.66667,0.0,0.0,6.85963,-0.03102,-0.01342,0.34199,0.04612,-0.10664,0.0,-0.05935,0.13843,0.0,0.05502,-0.12705,-0.00064,0.00147,0.04728,-0.10902,48.32
3.76,48.57488,-0.00744,-0.00314,25.77298,0.01809,0.00776,16.66667,0.0,0.0,6.85963,-0.03062,-0.01324,0.34199,0.04552,-0.10527,0.0,-0.0588,0.13717,0.0,0.0548,-0.12656,-0.00064,0.00147,0.04673,-0.10776,48.57
3.77,48.8333,-0.00726,-0.00306,25.84158,0.01779,0.00763,16.66667,0.0,0.0,6.85963,-0.03023,-0.01307,0.342,0.04493,-0.10392,0.0,-0.05825,0.13591,0.0,0.05458,-0.12606,-0.00063,0.00146,0.04618,-0.10651,48.83
3.78,49.0924,-0.00709,-0.00299,25.91018,0.01749,0.0075,16.66667,0.0,0.0,6.85963,-0.02984,-0.0129,0.342,0.04435,-0.10257,0.0,-0.05771,0.13465,0.0,0.05435,-0.12556,-0.00063,0.00146,0.04564,-0.10526,49.09
3.79,49.35219,-0.00692,-0.00292,25.97877,0.0172,0.00737,16.66667,0.0,0.0,6.85964,-0.02945,-0.01273,0.342,0.04377,-0.10124,0.0,-0.05717,0.1334,0.0,0.05413,-0.12506,-0.00063,0.00145,0.04509,-0.10403,49.35
3.8,49.61266,-0.00675,-0.00284,26.04737,0.01691,0.00725,16.66667,0.0,0.0,6.85964,-0.02907,-0.01256,0.342,0.04319,-0.09992,0.0,-0.05663,0.13216,0.0,0.0539,-0.12455,-0.00063,0.00144,0.04456,-0.1028,49.61
3.81,49.87382,-0.00658,-0.00277,26.11597,0.01662,0.00712,16.66667,0.0,0.0,6.85964,-0.02869,-0.0124,0.342,0.04263,-0.09862,0.0,-0.05609,0.13092,0.0,0.05367,-0.12403,-0.00062,0.00144,0.04403,-0.10159,49.87
3.82,50.13567,-0.00642,-0.0027,26.18456,0.01634,0.007,16.66667,0.0,0.0,6.85964,-0.02831,-0.01224,0.342,0.04206,-0.09733,0.0,-0.05556,0.12968,0.0,0.05344,-0.12351,-0.00062,0.00143,0.0435,-0.10038,50.14
3.83,50.3982,-0.00626,-0.00263,26.25316,0.01606,0.00688,16.66667,0.0,0.0,6.85964,-0.02794,-0.01207,0.342,0.0415,-0.09604,0.0,-0.05503,0.12845,0.0,0.05321,-0.12299,-0.00062,0.00143,0.04298,-0.09918,50.4
3.84,50.66141,-0.0061,-0.00257,26.32176,0.01578,0.00676,16.66667,0.0,0.0,6.85964,-0.02757,-0.01191,0.342,0.04095,-0.09478,0.0,-0.0545,0.12723,0.0,0.05297,-0.12246,-0.00061,0.00142,0.04246,-0.09799,50.66
3.85,50.92532,-0.00594,-0.0025,26.39035,0.01551,0.00664,16.66667,0.0,0.0,6.85964,-0.0272,-0.01175,0.342,0.0404,-0.09352,0.0,-0.05397,0.12601,0.0,0.05274,-0.12192,-0.00061,0.00141,0.04194,-0.09681,50.93
3.86,51.18991,-0.00579,-0.00243,26.45895,0.01524,0.00653,16.66667,0.0,0.0,6.85964,-0.02684,-0.0116,0.342,0.03986,-0.09227,0.0,-0.05345,0.12479,0.0,0.0525,-0.12139,-0.00061,0.00141,0.04143,-0.09564,51.19
3.87,51.45518,-0.00564,-0.00237,26.52754,0.01497,0.00641,16.66667,0.0,0.0,6.85964,-0.02648,-0.01144,0.34201,0.03933,-0.09104,0.0,-0.05292,0.12359,0.0,0.05226,-0.12084,-0.00061,0.0014,0.04092,-0.09448,51.46
3.88,51.72114,-0.00549,-0.00231,26.59614,0.01471,0.0063,16.66667,0.0,0.0,6.85964,-0.02613,-0.01128,0.34201,0.03879,-0.08982,0.0,-0.0524,0.12238,0.0,0.05202,-0.1203,-0.0006,0.0014,0.04042,-0.09333,51.72
3.89,51.98779,-0.00535,-0.00224,26.66474,0.01446,0.00619,16.66667,0.0,0.0,6.85964,-0.02578,-0.01113,0.34201,0.03827,-0.08861,0.0,-0.05188,0.12118,0.0,0.05178,-0.11975,-0.0006,0.00139,0.03992,-0.09219,51.99
3.9,52.25513,-0.00521,-0.00218,26.73333,0.0142,0.00608,16.66667,0.0,0.0,6.85964,-0.02543,-0.01098,0.34201,0.03775,-0.08741,0.0,-0.05137,0.11999,0.0,0.05153,-0.11919,-0.0006,0.00138,0.03943,-0.09106,52.26
3.91,52.52314,-0.00507,-0.00212,26.80193,0.01395,0.00597,16.66667,0.0,0.0,6.85964,-0.02508,-0.01083,0.34201,0.03723,-0.08623,0.0,-0.05086,0.11881,0.0,0.05129,-0.11863,-0.00059,0.00138,0.03894,-0.08994,52.52
3.92,52.79185,-0.00493,-0.00207,26.87053,0.0137,0.00586,16.66667,0.0,0.0,6.85964,-0.02474,-0.01068,0.34201,0.03672,-0.08506,0.0,-0.05035,0.11763,0.0,0.05104,-0.11807,-0.00059,0.00137,0.03845,-0.08882,52.79
3.93,53.06124,-0.0048,-0.00201,26.93912,0.01346,0.00576,16.66667,0.0,0.0,6.85965,-0.0244,-0.01053,0.34201,0.03622,-0.0839,0.0,-0.04984,0.11645,0.0,0.05079,-0.1175,-0.00059,0.00136,0.03797,-0.08772,53.06
3.94,53.33132,-0.00466,-0.00195,27.00772,0.01322,0.00565,16.66667,0.0,0.0,6.85965,-0.02407,-0.01039,0.34201,0.03572,-0.08275,0.0,-0.04933,0.11528,0.0,0.05054,-0.11693,-0.00059,0.00136,0.03749,-0.08663,53.33
3.95,53.60208,-0.00453,-0.0019,27.07632,0.01298,0.00555,16.66667,0.0,0.0,6.85965,-0.02374,-0.01025,0.34201,0.03522,-0.08161,0.0,-0.04883,0.11412,0.0,0.05029,-0.11635,-0.00058,0.00135,0.03702,-0.08554,53.6
3.96,53.87353,-0.00441,-0.00184,27.14491,0.01275,0.00545,16.66667,0.0,0.0,6.85965,-0.02341,-0.0101,0.34201,0.03473,-0.08048,0.0,-0.04833,0.11296,0.0,0.05003,-0.11577,-0.00058,0.00134,0.03655,-0.08447,53.87
3.97,54.14567,-0.00428,-0.00179,27.21351,0.01252,0.00535,16.66667,0.0,0.0,6.85965,-0.02309,-0.00996,0.34201,0.03425,-0.07937,0.0,-0.04783,0.11181,0.0,0.04977,-0.11519,-0.00058,0.00134,0.03608,-0.0834,54.15
3.98,54.41849,-0.00416,-0.00174,27.28211,0.01229,0.00525,16.66667,0.0,0.0,6.85965,-0.02277,-0.00982,0.34201,0.03377,-0.07826,0.0,-0.04734,0.11066,0.0,0.04952,-0.1146,-0.00057,0.00133,0.03562,-0.08234,54.42
3.99,54.69199,-0.00404,-0.00168,27.3507,0.01206,0.00515,16.66667,0.0,0.0,6.85965,-0.02245,-0.00968,0.34201,0.03329,-0.07717,0.0,-0.04684,0.10952,0.0,0.04925,-0.11401,-0.00057,0.00132,0.03516,-0.08129,54.69
4.0,54.96619,-0.00392,-0.00163,27.4193,0.01184,0.00506,16.66667,0.0,0.0,6.85965,-0.02213,-0.00955,0.34201,0.03282,-0.07609,0.0,-0.04635,0.10839,0.0,0.04899,-0.11341,-0.00057,0.00132,0.03471,-0.08026,54.97
4.01,55.24107,-0.0038,-0.00158,27.48789,0.01162,0.00497,16.66667,0.0,0.0,6.85965,-0.02182,-0.00941,0.34202,0.03236,-0.07502,0.0,-0.04587,0.10726,0.0,0.04873,-0.11281,-0.00057,0.00131,0.03426,-0.07923,55.24
4.02,55.51663,-0.00369,-0.00153,27.55649,0.01141,0.00487,16.66667,0.0,0.0,6.85965,-0.02151,-0.00928,0.34202,0.0319,-0.07396,0.0,-0.04538,0.10614,0.0,0.04846,-0.1122,-0.00056,0.0013,0.03382,-0.07821,55.52
4.03,55.79288,-0.00358,-0.00149,27.62509,0.0112,0.00478,16.66667,0.0,0.0,6.85965,-0.02121,-0.00915,0.34202,0.03144,-0.07291,0.0,-0.0449,0.10502,0.0,0.04819,-0.11159,-0.00056,0.00129,0.03338,-0.0772,55.79
4.04,56.06982,-0.00347,-0.00144,27.69368,0.01099,0.00469,16.66667,0.0,0.0,6.85965,-0.02091,-0.00901,0.34202,0.03099,-0.07188,0.0,-0.04442,0.10391,0.0,0.04792,-0.11098,-0.00056,0.00129,0.03294,-0.0762,56.07
4.05,56.34744,-0.00336,-0.00139,27.76228,0.01078,0.0046,16.66667,0.0,0.0,6.85965,-0.02061,-0.00888,0.34202,0.03054,-0.07085,0.0,-0.04394,0.10281,0.0,0.04765,-0.11036,-0.00055,0.00128,0.03251,-0.0752,56.35
4.06,56.62575,-0.00325,-0.00135,27.83088,0.01058,0.00451,16.66667,0.0,0.0,6.85965,-0.02031,-0.00876,0.34202,0.0301,-0.06984,0.0,-0.04347,0.10171,0.0,0.04738,-0.10974,-0.00055,0.00127,0.03208,-0.07422,56.63
4.07,56.90474,-0.00315,-0.0013,27.89947,0.01038,0.00443,16.66667,0.0,0.0,6.85965,-0.02002,-0.00863,0.34202,0.02967,-0.06883,0.0,-0.043,0.10062,0.0,0.0471,-0.10911,-0.00055,0.00127,0.03166,-0.07325,56.9
4.08,57.18443,-0.00305,-0.00126,27.96807,0.01018,0.00434,16.66667,0.0,0.0,6.85965,-0.01973,-0.0085,0.34202,0.02924,-0.06784,0.0,-0.04253,0.09954,0.0,0.04683,-0.10848,-0.00054,0.00126,0.03124,-0.07228,57.18
4.09,57.46479,-0.00295,-0.00122,28.03667,0.00999,0.00426,16.66667,0.0,0.0,6.85965,-0.01945,-0.00838,0.34202,0.02881,-0.06686,0.0,-0.04207,0.09846,0.0,0.04655,-0.10785,-0.00054,0.00125,0.03082,-0.07133,57.46
4.1,57.74584,-0.00285,-0.00118,28.10526,0.0098,0.00418,16.66667,0.0,0.0,6.85965,-0.01917,-0.00826,0.34202,0.02839,-0.06589,0.0,-0.0416,0.09738,0.0,0.04626,-0.10721,-0.00054,0.00124,0.03041,-0.07038,57.75
4.11,58.02758,-0.00275,-0.00114,28.17386,0.00961,0.0041,16.66667,0.0,0.0,6.85965,-0.01889,-0.00814,0.34202,0.02797,-0.06492,0.0,-0.04114,0.09632,0.0,0.04598,-0.10656,-0.00053,0.00124,0.03,-0.06944,58.03
4.12,58.31001,-0.00266,-0.0011,28.24246,0.00942,0.00402,16.66667,0.0,0.0,6.85965,-0.01861,-0.00802,0.34202,0.02756,-0.06397,0.0,-0.04069,0.09526,0.0,0.0457,-0.10591,-0.00053,0.00123,0.0296,-0.06852,58.31
4.13,58.59312,-0.00257,-0.00106,28.31105,0.00924,0.00394,16.66667,0.0,0.0,6.85965,-0.01834,-0.0079,0.34202,0.02715,-0.06304,0.0,-0.04023,0.09421,0.0,0.04541,-0.10526,-0.00053,0.00122,0.0292,-0.0676,58.59
4.14,58.87691,-0.00248,-0.00102,28.37965,0.00906,0.00386,16.66667,0.0,0.0,6.85966,-0.01807,-0.00778,0.34202,0.02675,-0.06211,0.0,-0.03978,0.09316,0.0,0.04512,-0.10461,-0.00052,0.00121,0.0288,-0.06669,58.88
4.15,59.1614,-0.00239,-0.00098,28.44825,0.00888,0.00378,16.66667,0.0,0.0,6.85966,-0.0178,-0.00766,0.34202,0.02635,-0.06119,0.0,-0.03933,0.09212,0.0,0.04483,-0.10395,-0.00052,0.00121,0.02841,-0.06579,59.16
4.16,59.44657,-0.0023,-0.00094,28.51684,0.0087,0.00371,16.66667,0.0,0.0,6.85966,-0.01753,-0.00755,0.34202,0.02595,-0.06028,0.0,-0.03889,0.09109,0.0,0.04454,-0.10328,-0.00052,0.0012,0.02802,-0.06489,59.45
4.17,59.73242,-0.00222,-0.00091,28.58544,0.00853,0.00363,16.66667,0.0,0.0,6.85966,-0.01727,-0.00744,0.34202,0.02556,-0.05938,0.0,-0.03845,0.09006,0.0,0.04425,-0.10262,-0.00051,0.00119,0.02763,-0.06401,59.73
4.18,60.01896,-0.00213,-0.00087,28.65404,0.00836,0.00356,16.66667,0.0,0.0,6.85966,-0.01701,-0.00732,0.34202,0.02518,-0.05849,0.0,-0.03801,0.08904,0.0,0.04395,-0.10195,-0.00051,0.00118,0.02725,-0.06314,60.02
4.19,60.30619,-0.00205,-0.00084,28.72263,0.00819,0.00349,16.66667,0.0,0.0,6.85966,-0.01676,-0.00721,0.34202,0.0248,-0.05761,0.0,-0.03757,0.08803,0.0,0.04365,-0.10127,-0.00051,0.00117,0.02688,-0.06227,60.31
4.2,60.5941,-0.00197,-0.0008,28.79123,0.00803,0.00342,16.66667,0.0,0.0,6.85966,-0.01651,-0.0071,0.34202,0.02442,-0.05675,0.0,-0.03714,0.08702,0.0,0.04336,-0.10059,-0.0005,0.00117,0.02651,-0.06141,60.59
4.21,60.8827,-0.00189,-0.00077,28.85983,0.00786,0.00335,16.66667,0.0,0.0,6.85966,-0.01626,-0.007,0.34202,0.02405,-0.05589,0.0,-0.03671,0.08603,0.0,0.04306,-0.09991,-0.0005,0.00116,0.02614,-0.06057,60.88
4.22,61.17198,-0.00181,-0.00074,28.92842,0.0077,0.00328,16.66667,0.0,0.0,6.85966,-0.01601,-0.00689,0.34202,0.02368,-0.05504,0.0,-0.03628,0.08503,0.0,0.04276,-0.09923,-0.0005,0.00115,0.02577,-0.05973,61.17
4.23,61.46195,-0.00174,-0.0007,28.99702,0.00755,0.00321,16.66667,0.0,0.0,6.85966,-0.01577,-0.00678,0.34203,0.02332,-0.0542,0.0,-0.03585,0.08405,0.0,0.04245,-0.09854,-0.00049,0.00114,0.02541,-0.0589,61.46
4.24,61.75261,-0.00167,-0.00067,29.06562,0.00739,0.00314,16.66667,0.0,0.0,6.85966,-0.01553,-0.00668,0.34203,0.02296,-0.05337,0.0,-0.03543,0.08307,0.0,0.04215,-0.09785,-0.00049,0.00114,0.02505,-0.05808,61.75
4.25,62.04395,-0.00159,-0.00064,29.13421,0.00724,0.00308,16.66667,0.0,0.0,6.85966,-0.01529,-0.00657,0.34203,0.0226,-0.05255,0.0,-0.03501,0.0821,0.0,0.04184,-0.09715,-0.00049,0.00113,0.0247,-0.05726,62.04
4.26,62.33598,-0.00152,-0.00061,29.20281,0.00709,0.00301,16.66667,0.0,0.0,6.85966,-0.01505,-0.00647,0.34203,0.02225,-0.05174,0.0,-0.0346,0.08113,0.0,0.04154,-0.09645,-0.00048,0.00112,0.02435,-0.05646,62.34
4.27,62.62869,-0.00145,-0.00058,29.27141,0.00694,0.00295,16.66667,0.0,0.0,6.85966,-0.01482,-0.00637,0.34203,0.02191,-0.05095,0.0,-0.03419,0.08018,0.0,0.04123,-0.09575,-0.00048,0.00111,0.024,-0.05566,62.63
4.28,62.92209,-0.00138,-0.00055,29.34,0.00679,0.00289,16.66667,0.0,0.0,6.85966,-0.01459,-0.00627,0.34203,0.02156,-0.05015,0.0,-0.03378,0.07923,0.0,0.04092,-0.09505,-0.00047,0.0011,0.02366,-0.05487,62.92
4.29,63.21618,-0.00132,-0.00052,29.4086,0.00665,0.00282,16.66667,0.0,0.0,6.85966,-0.01436,-0.00617,0.34203,0.02122,-0.04937,0.0,-0.03337,0.07828,0.0,0.04061,-0.09435,-0.00047,0.00109,0.02332,-0.05409,63.22
4.3,63.51095,-0.00125,-0.0005,29.47719,0.00651,0.00276,16.66667,0.0,0.0,6.85966,-0.01414,-0.00608,0.34203,0.02089,-0.0486,0.0,-0.03297,0.07735,0.0,0.0403,-0.09364,-0.00047,0.00109,0.02299,-0.05332,63.51
4.31,63.80641,-0.00119,-0.00047,29.54579,0.00637,0.0027,16.66667,0.0,0.0,6.85966,-0.01392,-0.00598,0.34203,0.02056,-0.04784,0.0,-0.03257,0.07642,0.0,0.03999,-0.09293,-0.00046,0.00108,0.02266,-0.05256,63.81
4.32,64.10255,-0.00113,-0.00044,29.61439,0.00623,0.00264,16.66667,0.0,0.0,6.85966,-0.0137,-0.00589,0.34203,0.02023,-0.04709,0.0,-0.03217,0.07549,0.0,0.03968,-0.09222,-0.00046,0.00107,0.02233,-0.0518,64.1
4.33,64.39938,-0.00107,-0.00042,29.68298,0.0061,0.00259,16.66667,0.0,0.0,6.85966,-0.01348,-0.00579,0.34203,0.01991,-0.04634,0.0,-0.03178,0.07458,0.0,0.03936,-0.0915,-0.00046,0.00106,0.022,-0.05106,64.4
4.34,64.6969,-0.00101,-0.00039,29.75158,0.00597,0.00253,16.66667,0.0,0.0,6.85966,-0.01327,-0.0057,0.34203,0.01959,-0.04561,0.0,-0.03139,0.07367,0.0,0.03905,-0.09079,-0.00045,0.00105,0.02168,-0.05032,64.7
4.35,64.9951,-0.00095,-0.00037,29.82018,0.00584,0.00247,16.66667,0.0,0.0,6.85966,-0.01306,-0.00561,0.34203,0.01928,-0.04488,0.0,-0.031,0.07277,0.0,0.03873,-0.09007,-0.00045,0.00104,0.02137,-0.04959,65.0
4.36,65.29399,-0.00089,-0.00034,29.88877,0.00571,0.00242,16.66667,0.0,0.0,6.85966,-0.01285,-0.00552,0.34203,0.01897,-0.04417,0.0,-0.03062,0.07188,0.0,0.03842,-0.08935,-0.00045,0.00104,0.02105,-0.04887,65.29
4.37,65.59356,-0.00084,-0.00032,29.95737,0.00558,0.00236,16.66667,0.0,0.0,6.85966,-0.01264,-0.00543,0.34203,0.01866,-0.04346,0.0,-0.03023,0.07099,0.0,0.0381,-0.08863,-0.00044,0.00103,0.02074,-0.04815,65.59
4.38,65.89382,-0.00078,-0.0003,30.02597,0.00546,0.00231,16.66667,0.0,0.0,6.85966,-0.01244,-0.00534,0.34203,0.01836,-0.04276,0.0,-0.02986,0.07011,0.0,0.03779,-0.08791,-0.00044,0.00102,0.02044,-0.04745,65.89
4.39,66.19477,-0.00073,-0.00027,30.09456,0.00533,0.00226,16.66667,0.0,0.0,6.85966,-0.01224,-0.00525,0.34203,0.01806,-0.04207,0.0,-0.02948,0.06924,0.0,0.03747,-0.08719,-0.00043,0.00101,0.02013,-0.04675,66.19
4.4,66.4964,-0.00068,-0.00025,30.16316,0.00521,0.00221,16.66667,0.0,0.0,6.85966,-0.01204,-0.00517,0.34203,0.01777,-0.04139,0.0,-0.02911,0.06837,0.0,0.03715,-0.08646,-0.00043,0.001,0.01983,-0.04606,66.5
4.41,66.79872,-0.00062,-0.00023,30.23176,0.00509,0.00216,16.66667,0.0,0.0,6.85966,-0.01184,-0.00508,0.34203,0.01747,-0.04071,0.0,-0.02874,0.06752,0.0,0.03684,-0.08574,-0.00043,0.00099,0.01954,-0.04538,66.8
4.42,67.10172,-0.00057,-0.00021,30.30035,0.00498,0.00211,16.66667,0.0,0.0,6.85966,-0.01165,-0.005,0.34203,0.01719,-0.04005,0.0,-0.02838,0.06667,0.0,0.03652,-0.08501,-0.00042,0.00099,0.01924,-0.0447,67.1
4.43,67.40541,-0.00053,-0.00019,30.36895,0.00486,0.00206,16.66667,0.0,0.0,6.85966,-0.01146,-0.00492,0.34203,0.0169,-0.03939,0.0,-0.02801,0.06582,0.0,0.0362,-0.08429,-0.00042,0.00098,0.01896,-0.04403,67.41
4.44,67.70978,-0.00048,-0.00017,30.43755,0.00475,0.00201,16.66667,0.0,0.0,6.85966,-0.01127,-0.00483,0.34203,0.01662,-0.03874,0.0,-0.02766,0.06499,0.0,0.03588,-0.08356,-0.00042,0.00097,0.01867,-0.04337,67.71
4.45,68.01485,-0.00043,-0.00015,30.50614,0.00464,0.00196,16.66667,0.0,0.0,6.85966,-0.01108,-0.00475,0.34203,0.01634,-0.0381,0.0,-0.0273,0.06416,0.0,0.03557,-0.08284,-0.00041,0.00096,0.01839,-0.04272,68.01
4.46,68.32059,-0.00039,-0.00013,30.57474,0.00453,0.00191,16.66667,0.0,0.0,6.85966,-0.0109,-0.00467,0.34203,0.01607,-0.03747,0.0,-0.02695,0.06334,0.0,0.03525,-0.08211,-0.00041,0.00095,0.01811,-0.04208,68.32
4.47,68.62703,-0.00034,-0.00011,30.64334,0.00442,0.00187,16.66667,0.0,0.0,6.85966,-0.01072,-0.0046,0.34203,0.0158,-0.03685,0.0,-0.0266,0.06253,0.0,0.03493,-0.08138,-0.00041,0.00094,0.01783,-0.04144,68.63
4.48,68.93415,-0.0003,-9e-05,30.71193,0.00432,0.00182,16.66667,0.0,0.0,6.85966,-0.01054,-0.00452,0.34203,0.01554,-0.03623,0.0,-0.02625,0.06172,0.0,0.03461,-0.08066,-0.0004,0.00094,0.01756,-0.04081,68.93
4.49,69.24195,-0.00026,-8e-05,30.78053,0.00421,0.00178,16.66667,0.0,0.0,6.85966,-0.01036,-0.00444,0.34203,0.01527,-0.03562,0.0,-0.02591,0.06092,0.0,0.0343,-0.07993,-0.0004,0.00093,0.01729,-0.04019,69.24
4.5,69.55044,-0.00022,-6e-05,30.84913,0.00411,0.00173,16.66667,0.0,0.0,6.85966,-0.01019,-0.00437,0.34203,0.01501,-0.03502,0.0,-0.02557,0.06013,0.0,0.03398,-0.07921,-0.00039,0.00092,0.01702,-0.03958,69.55
4.51,69.85962,-0.00018,-4e-05,30.91772,0.00401,0.00169,16.66667,0.0,0.0,6.85966,-0.01002,-0.00429,0.34203,0.01476,-0.03443,0.0,-0.02523,0.05934,0.0,0.03367,-0.07849,-0.00039,0.00091,0.01676,-0.03897,69.86
4.52,70.16948,-0.00014,-2e-05,30.98632,0.00391,0.00165,16.66667,0.0,0.0,6.85966,-0.00985,-0.00422,0.34203,0.01451,-0.03385,0.0,-0.0249,0.05857,0.0,0.03335,-0.07776,-0.00039,0.0009,0.0165,-0.03837,70.17
4.53,70.48003,-0.0001,-1e-05,31.05492,0.00382,0.00161,16.66667,0.0,0.0,6.85966,-0.00968,-0.00415,0.34203,0.01426,-0.03327,0.0,-0.02457,0.05779,0.0,0.03304,-0.07704,-0.00038,0.00089,0.01624,-0.03777,70.48
4.54,70.79127,-6e-05,1e-05,31.12351,0.00372,0.00157,16.66667,0.0,0.0,6.85966,-0.00951,-0.00408,0.34203,0.01401,-0.0327,0.0,-0.02424,0.05703,0.0,0.03272,-0.07632,-0.00038,0.00089,0.01599,-0.03719,70.79
4.55,71.10319,-3e-05,2e-05,31.19211,0.00363,0.00153,16.66667,0.0,0.0,6.85966,-0.00935,-0.004,0.34203,0.01377,-0.03214,0.0,-0.02392,0.05628,0.0,0.03241,-0.0756,-0.00038,0.00088,0.01574,-0.03661,71.1
4.56,71.4158,1e-05,4e-05,31.26071,0.00354,0.00149,16.66667,0.0,0.0,6.85966,-0.00919,-0.00394,0.34203,0.01353,-0.03159,0.0,-0.0236,0.05553,0.0,0.03209,-0.07488,-0.00037,0.00087,0.01549,-0.03604,71.42
4.57,71.72909,4e-05,5e-05,31.3293,0.00345,0.00145,16.66667,0.0,0.0,6.85966,-0.00903,-0.00387,0.34203,0.01329,-0.03104,0.0,-0.02328,0.05479,0.0,0.03178,-0.07417,-0.00037,0.00086,0.01524,-0.03547,71.73
4.58,72.04307,8e-05,7e-05,31.3979,0.00336,0.00141,16.66667,0.0,0.0,6.85966,-0.00887,-0.0038,0.34203,0.01306,-0.0305,0.0,-0.02296,0.05405,0.0,0.03147,-0.07345,-0.00037,0.00085,0.015,-0.03491,72.04
4.59,72.35773,0.00011,8e-05,31.4665,0.00327,0.00137,16.66667,0.0,0.0,6.85966,-0.00872,-0.00373,0.34203,0.01283,-0.02997,0.0,-0.02265,0.05332,0.0,0.03116,-0.07274,-0.00036,0.00084,0.01476,-0.03436,72.36
4.6,72.67308,0.00014,9e-05,31.53509,0.00319,0.00134,16.66667,0.0,0.0,6.85966,-0.00857,-0.00367,0.34203,0.0126,-0.02945,0.0,-0.02234,0.0526,0.0,0.03085,-0.07203,-0.00036,0.00084,0.01453,-0.03382,72.67
4.61,72.98912,0.00017,0.00011,31.60369,0.0031,0.0013,16.66667,0.0,0.0,6.85966,-0.00841,-0.0036,0.34203,0.01238,-0.02893,0.0,-0.02204,0.05189,0.0,0.03054,-0.07132,-0.00035,0.00083,0.01429,-0.03328,72.99
4.62,73.30584,0.0002,0.00012,31.67229,0.00302,0.00127,16.66667,0.0,0.0,6.85966,-0.00827,-0.00354,0.34203,0.01216,-0.02842,0.0,-0.02174,0.05118,0.0,0.03024,-0.07061,-0.00035,0.00082,0.01406,-0.03275,73.31
4.63,73.62325,0.00023,0.00013,31.74088,0.00294,0.00123,16.66667,0.0,0.0,6.85966,-0.00812,-0.00347,0.34203,0.01194,-0.02791,0.0,-0.02144,0.05048,0.0,0.02993,-0.06991,-0.00035,0.00081,0.01384,-0.03222,73.62
4.64,73.94135,0.00026,0.00014,31.80948,0.00286,0.0012,16.66667,0.0,0.0,6.85966,-0.00798,-0.00341,0.34203,0.01173,-0.02742,0.0,-0.02114,0.04979,0.0,0.02962,-0.0692,-0.00034,0.0008,0.01361,-0.03171,73.94
4.65,74.26013,0.00029,0.00015,31.87808,0.00278,0.00116,16.66667,0.0,0.0,6.85966,-0.00783,-0.00335,0.34203,0.01152,-0.02693,0.0,-0.02085,0.04911,0.0,0.02932,-0.0685,-0.00034,0.00079,0.01339,-0.03119,74.26
4.66,74.57959,0.00032,0.00017,31.94667,0.0027,0.00113,16.66667,0.0,0.0,6.85966,-0.00769,-0.00329,0.34203,0.01131,-0.02644,0.0,-0.02056,0.04843,0.0,0.02902,-0.06781,-0.00034,0.00079,0.01317,-0.03069,74.58
4.67,74.89975,0.00034,0.00018,32.01527,0.00263,0.0011,16.66667,0.0,0.0,6.85966,-0.00755,-0.00323,0.34203,0.0111,-0.02597,0.0,-0.02027,0.04776,0.0,0.02872,-0.06711,-0.00033,0.00078,0.01296,-0.03019,74.9
4.68,75.22059,0.00037,0.00019,32.08387,0.00255,0.00107,16.66667,0.0,0.0,6.85966,-0.00742,-0.00317,0.34203,0.0109,-0.0255,0.0,-0.01999,0.04709,0.0,0.02842,-0.06642,-0.00033,0.00077,0.01274,-0.0297,75.22
4.69,75.54211,0.00039,0.0002,32.15246,0.00248,0.00104,16.66667,0.0,0.0,6.85966,-0.00728,-0.00311,0.34203,0.0107,-0.02504,0.0,-0.0197,0.04644,0.0,0.02812,-0.06573,-0.00033,0.00076,0.01253,-0.02921,75.54
4.7,75.86432,0.00042,0.00021,32.22106,0.00241,0.001,16.66667,0.0,0.0,6.85966,-0.00715,-0.00306,0.34203,0.0105,-0.02458,0.0,-0.01943,0.04579,0.0,0.02782,-0.06505,-0.00032,0.00075,0.01233,-0.02873,75.86
4.71,76.18722,0.00044,0.00022,32.28966,0.00234,0.00097,16.66667,0.0,0.0,6.85966,-0.00702,-0.003,0.34203,0.01031,-0.02413,0.0,-0.01915,0.04514,0.0,0.02753,-0.06437,-0.00032,0.00075,0.01212,-0.02826,76.19
4.72,76.5108,0.00046,0.00023,32.35825,0.00227,0.00095,16.66667,0.0,0.0,6.85966,-0.00689,-0.00294,0.34203,0.01012,-0.02368,0.0,-0.01888,0.04451,0.0,0.02723,-0.06369,-0.00032,0.00074,0.01192,-0.02779,76.51
4.73,76.83507,0.00049,0.00024,32.42685,0.0022,0.00092,16.66667,0.0,0.0,6.85967,-0.00676,-0.00289,0.34203,0.00993,-0.02325,0.0,-0.01861,0.04388,0.0,0.02694,-0.06301,-0.00031,0.00073,0.01172,-0.02733,76.84
4.74,77.16002,0.00051,0.00024,32.49545,0.00214,0.00089,16.66667,0.0,0.0,6.85967,-0.00664,-0.00283,0.34203,0.00974,-0.02282,0.0,-0.01834,0.04325,0.0,0.02665,-0.06234,-0.00031,0.00072,0.01152,-0.02687,77.16
4.75,77.48566,0.00053,0.00025,32.56404,0.00207,0.00086,16.66667,0.0,0.0,6.85967,-0.00651,-0.00278,0.34203,0.00956,-0.02239,0.0,-0.01808,0.04264,0.0,0.02636,-0.06167,-0.00031,0.00072,0.01133,-0.02642,77.49
4.76,77.81199,0.00055,0.00026,32.63264,0.00201,0.00083,16.66667,0.0,0.0,6.85967,-0.00639,-0.00273,0.34203,0.00938,-0.02197,0.0,-0.01782,0.04203,0.0,0.02607,-0.06101,-0.0003,0.00071,0.01113,-0.02597,77.81
4.77,78.139,0.00057,0.00027,32.70124,0.00194,0.00081,16.66667,0.0,0.0,6.85967,-0.00627,-0.00268,0.34203,0.0092,-0.02156,0.0,-0.01756,0.04142,0.0,0.02578,-0.06034,-0.0003,0.0007,0.01095,-0.02554,78.14
4.78,78.4667,0.00059,0.00028,32.76983,0.00188,0.00078,16.66667,0.0,0.0,6.85967,-0.00615,-0.00263,0.34203,0.00902,-0.02115,0.0,-0.01731,0.04083,0.0,0.0255,-0.05969,-0.0003,0.00069,0.01076,-0.0251,78.47
4.79,78.79508,0.0006,0.00029,32.83843,0.00182,0.00075,16.66667,0.0,0.0,6.85967,-0.00604,-0.00257,0.34203,0.00885,-0.02075,0.0,-0.01705,0.04023,0.0,0.02522,-0.05903,-0.00029,0.00068,0.01057,-0.02468,78.8
4.8,79.12415,0.00062,0.00029,32.90703,0.00176,0.00073,16.66667,0.0,0.0,6.85967,-0.00592,-0.00253,0.34203,0.00868,-0.02035,0.0,-0.0168,0.03965,0.0,0.02494,-0.05838,-0.00029,0.00068,0.01039,-0.02425,79.12
4.81,79.45391,0.00064,0.0003,32.97562,0.0017,0.0007,16.66667,0.0,0.0,6.85967,-0.00581,-0.00248,0.34203,0.00851,-0.01996,0.0,-0.01656,0.03907,0.0,0.02466,-0.05774,-0.00029,0.00067,0.01021,-0.02384,79.45
4.82,79.78435,0.00066,0.00031,33.04422,0.00165,0.00068,16.66667,0.0,0.0,6.85967,-0.0057,-0.00243,0.34203,0.00835,-0.01958,0.0,-0.01631,0.0385,0.0,0.02438,-0.05709,-0.00028,0.00066,0.01003,-0.02343,79.78
4.83,80.11548,0.00067,0.00031,33.11282,0.00159,0.00066,16.66667,0.0,0.0,6.85967,-0.00559,-0.00238,0.34203,0.00819,-0.0192,0.0,-0.01607,0.03794,0.0,0.0241,-0.05646,-0.00028,0.00065,0.00986,-0.02302,80.12
4.84,80.4473,0.00069,0.00032,33.18141,0.00154,0.00063,16.66667,0.0,0.0,6.85967,-0.00548,-0.00233,0.34203,0.00802,-0.01883,0.0,-0.01583,0.03738,0.0,0.02383,-0.05582,-0.00028,0.00065,0.00969,-0.02262,80.45
4.85,80.7798,0.0007,0.00033,33.25001,0.00148,0.00061,16.66667,0.0,0.0,6.85967,-0.00537,-0.00229,0.34203,0.00787,-0.01846,0.0,-0.0156,0.03683,0.0,0.02356,-0.05519,-0.00027,0.00064,0.00952,-0.02223,80.78
4.86,81.11298,0.00072,0.00033,33.31861,0.00143,0.00059,16.66667,0.0,0.0,6.85967,-0.00526,-0.00224,0.34203,0.00771,-0.0181,0.0,-0.01537,0.03628,0.0,0.02329,-0.05457,-0.00027,0.00063,0.00935,-0.02184,81.11
4.87,81.44685,0.00073,0.00034,33.3872,0.00138,0.00057,16.66667,0.0,0.0,6.85967,-0.00516,-0.0022,0.34203,0.00756,-0.01774,0.0,-0.01514,0.03574,0.0,0.02302,-0.05394,-0.00027,0.00063,0.00918,-0.02146,81.45
4.88,81.78141,0.00074,0.00034,33.4558,0.00133,0.00054,16.66667,0.0,0.0,6.85967,-0.00506,-0.00215,0.34204,0.00741,-0.01739,0.0,-0.01491,0.03521,0.0,0.02275,-0.05333,-0.00026,0.00062,0.00902,-0.02108,81.78
4.89,82.11666,0.00076,0.00035,33.5244,0.00128,0.00052,16.66667,0.0,0.0,6.85967,-0.00496,-0.00211,0.34204,0.00726,-0.01705,0.0,-0.01468,0.03468,0.0,0.02249,-0.05271,-0.00026,0.00061,0.00886,-0.02071,82.12
4.9,82.45259,0.00077,0.00035,33.59299,0.00123,0.0005,16.66667,0.0,0.0,6.85967,-0.00486,-0.00207,0.34204,0.00711,-0.0167,0.0,-0.01446,0.03416,0.0,0.02223,-0.0521,-0.00026,0.0006,0.0087,-0.02034,82.45
4.91,82.7892,0.00078,0.00036,33.66159,0.00118,0.00048,16.66667,0.0,0.0,6.85967,-0.00476,-0.00203,0.34204,0.00697,-0.01637,0.0,-0.01424,0.03365,0.0,0.02197,-0.0515,-0.00025,0.0006,0.00854,-0.01998,82.79
4.92,83.1265,0.00079,0.00036,33.73019,0.00114,0.00046,16.66667,0.0,0.0,6.85967,-0.00467,-0.00198,0.34204,0.00682,-0.01604,0.0,-0.01402,0.03314,0.0,0.02171,-0.0509,-0.00025,0.00059,0.00839,-0.01962,83.13
4.93,83.46449,0.0008,0.00037,33.79878,0.00109,0.00044,16.66667,0.0,0.0,6.85967,-0.00457,-0.00194,0.34204,0.00668,-0.01571,0.0,-0.01381,0.03263,0.0,0.02145,-0.0503,-0.00025,0.00058,0.00824,-0.01927,83.46
4.94,83.80316,0.00081,0.00037,33.86738,0.00105,0.00042,16.66667,0.0,0.0,6.85967,-0.00448,-0.0019,0.34204,0.00655,-0.01539,0.0,-0.0136,0.03214,0.0,0.0212,-0.04971,-0.00025,0.00058,0.00809,-0.01892,83.8
4.95,84.14252,0.00082,0.00037,33.93598,0.001,0.0004,16.66667,0.0,0.0,6.85967,-0.00439,-0.00186,0.34204,0.00641,-0.01508,0.0,-0.01339,0.03165,0.0,0.02095,-0.04913,-0.00024,0.00057,0.00794,-0.01857,84.14
4.96,84.48257,0.00083,0.00038,34.00457,0.00096,0.00039,16.66667,0.0,0.0,6.85967,-0.0043,-0.00183,0.34204,0.00628,-0.01477,0.0,-0.01318,0.03116,0.0,0.02069,-0.04854,-0.00024,0.00056,0.00779,-0.01824,84.48
4.97,84.8233,0.00084,0.00038,34.07317,0.00092,0.00037,16.66667,0.0,0.0,6.85967,-0.00421,-0.00179,0.34204,0.00614,-0.01446,0.0,-0.01298,0.03068,0.0,0.02045,-0.04797,-0.00024,0.00056,0.00765,-0.0179,84.82
4.98,85.16472,0.00085,0.00039,34.14177,0.00088,0.00035,16.66667,0.0,0.0,6.85967,-0.00412,-0.00175,0.34204,0.00602,-0.01416,0.0,-0.01277,0.03021,0.0,0.0202,-0.04739,-0.00023,0.00055,0.00751,-0.01757,85.16
4.99,85.50682,0.00086,0.00039,34.21036,0.00083,0.00033,16.66667,0.0,0.0,6.85967,-0.00403,-0.00171,0.34204,0.00589,-0.01386,0.0,-0.01258,0.02974,0.0,0.01995,-0.04683,-0.00023,0.00054,0.00737,-0.01725,85.51
5.0,85.84961,0.00087,0.00039,34.27896,0.0008,0.00032,16.66667,0.0,0.0,6.85967,-0.00395,-0.00168,0.34204,0.00576,-0.01357,0.0,-0.01238,0.02928,0.0,0.01971,-0.04626,-0.00023,0.00054,0.00723,-0.01693,85.85
5.01,86.19309,0.00087,0.0004,34.34756,0.00076,0.0003,16.66667,0.0,0.0,6.85967,-0.00386,-0.00164,0.34204,0.00564,-0.01328,0.0,-0.01218,0.02882,0.0,0.01947,-0.0457,-0.00023,0.00053,0.00709,-0.01661,86.19
5.02,86.53725,0.00088,0.0004,34.41615,0.00072,0.00028,16.66667,0.0,0.0,6.85967,-0.00378,-0.0016,0.34204,0.00552,-0.013,0.0,-0.01199,0.02837,0.0,0.01923,-0.04515,-0.00022,0.00052,0.00696,-0.0163,86.54
5.03,86.8821,0.00089,0.0004,34.48475,0.00068,0.00027,16.66667,0.0,0.0,6.85967,-0.0037,-0.00157,0.34204,0.0054,-0.01272,0.0,-0.0118,0.02792,0.0,0.019,-0.0446,-0.00022,0.00052,0.00683,-0.016,86.88
5.04,87.22763,0.00089,0.0004,34.55335,0.00065,0.00025,16.66667,0.0,0.0,6.85967,-0.00362,-0.00154,0.34204,0.00528,-0.01245,0.0,-0.01161,0.02748,0.0,0.01876,-0.04405,-0.00022,0.00051,0.0067,-0.01569,87.23
5.05,87.57385,0.0009,0.00041,34.62194,0.00061,0.00024,16.66667,0.0,0.0,6.85967,-0.00354,-0.0015,0.34204,0.00516,-0.01218,0.0,-0.01143,0.02705,0.0,0.01853,-0.04351,-0.00021,0.0005,0.00657,-0.0154,87.57
5.06,87.92076,0.00091,0.00041,34.69054,0.00058,0.00022,16.66667,0.0,0.0,6.85967,-0.00347,-0.00147,0.34204,0.00505,-0.01191,0.0,-0.01125,0.02662,0.0,0.0183,-0.04297,-0.00021,0.0005,0.00644,-0.0151,87.92
5.07,88.26835,0.00091,0.00041,34.75914,0.00054,0.00021,16.66667,0.0,0.0,6.85967,-0.00339,-0.00144,0.34204,0.00494,-0.01165,0.0,-0.01106,0.02619,0.0,0.01807,-0.04244,-0.00021,0.00049,0.00632,-0.01481,88.27
5.08,88.61662,0.00092,0.00041,34.82773,0.00051,0.0002,16.66667,0.0,0.0,6.85967,-0.00331,-0.0014,0.34204,0.00483,-0.01139,0.0,-0.01089,0.02577,0.0,0.01784,-0.04191,-0.00021,0.00049,0.0062,-0.01453,88.62
5.09,88.96559,0.00092,0.00041,34.89633,0.00048,0.00018,16.66667,0.0,0.0,6.85967,-0.00324,-0.00137,0.34204,0.00472,-0.01114,0.0,-0.01071,0.02536,0.0,0.01762,-0.04139,-0.0002,0.00048,0.00607,-0.01425,88.97
5.1,89.31524,0.00093,0.00042,34.96493,0.00044,0.00017,16.66667,0.0,0.0,6.85967,-0.00317,-0.00134,0.34204,0.00461,-0.01089,0.0,-0.01054,0.02495,0.0,0.0174,-0.04087,-0.0002,0.00047,0.00596,-0.01397,89.32
5.11,89.66557,0.00093,0.00042,35.03352,0.00041,0.00016,16.66667,0.0,0.0,6.85967,-0.0031,-0.00131,0.34204,0.00451,-0.01065,0.0,-0.01036,0.02455,0.0,0.01718,-0.04036,-0.0002,0.00047,0.00584,-0.0137,89.67
5.12,90.01659,0.00093,0.00042,35.10212,0.00038,0.00014,16.66667,0.0,0.0,6.85967,-0.00303,-0.00128,0.34204,0.0044,-0.01041,0.0,-0.01019,0.02415,0.0,0.01696,-0.03985,-0.0002,0.00046,0.00572,-0.01343,90.02
5.13,90.3683,0.00094,0.00042,35.17072,0.00035,0.00013,16.66667,0.0,0.0,6.85967,-0.00296,-0.00125,0.34204,0.0043,-0.01017,0.0,-0.01003,0.02375,0.0,0.01674,-0.03935,-0.00019,0.00046,0.00561,-0.01317,90.37
5.14,90.72069,0.00094,0.00042,35.23931,0.00032,0.00012,16.66667,0.0,0.0,6.85967,-0.00289,-0.00122,0.34204,0.0042,-0.00994,0.0,-0.00986,0.02337,0.0,0.01653,-0.03885,-0.00019,0.00045,0.0055,-0.01291,90.72
5.15,91.07377,0.00094,0.00042,35.30791,0.0003,0.00011,16.66667,0.0,0.0,6.85967,-0.00282,-0.00119,0.34204,0.0041,-0.00971,0.0,-0.0097,0.02298,0.0,0.01632,-0.03835,-0.00019,0.00044,0.00539,-0.01265,91.07
5.16,91.42754,0.00095,0.00042,35.37651,0.00027,9e-05,16.66667,0.0,0.0,6.85967,-0.00276,-0.00117,0.34204,0.00401,-0.00948,0.0,-0.00954,0.0226,0.0,0.01611,-0.03786,-0.00019,0.00044,0.00528,-0.0124,91.43
5.17,91.78199,0.00095,0.00042,35.4451,0.00024,8e-05,16.66667,0.0,0.0,6.85967,-0.00269,-0.00114,0.34204,0.00391,-0.00926,0.0,-0.00938,0.02223,0.0,0.0159,-0.03738,-0.00018,0.00043,0.00517,-0.01215,91.78
5.18,92.13713,0.00095,0.00042,35.5137,0.00022,7e-05,16.66667,0.0,0.0,6.85967,-0.00263,-0.00111,0.34204,0.00382,-0.00904,0.0,-0.00922,0.02186,0.0,0.01569,-0.03689,-0.00018,0.00043,0.00506,-0.0119,92.14
5.19,92.49295,0.00095,0.00043,35.5823,0.00019,6e-05,16.66667,0.0,0.0,6.85967,-0.00257,-0.00108,0.34204,0.00373,-0.00883,0.0,-0.00907,0.0215,0.0,0.01549,-0.03642,-0.00018,0.00042,0.00496,-0.01166,92.49
5.2,92.84946,0.00095,0.00043,35.65089,0.00016,5e-05,16.66667,0.0,0.0,6.85967,-0.00251,-0.00106,0.34204,0.00364,-0.00862,0.0,-0.00891,0.02114,0.0,0.01528,-0.03595,-0.00018,0.00042,0.00486,-0.01142,92.85
5.21,93.20665,0.00096,0.00043,35.71949,0.00014,4e-05,16.66667,0.0,0.0,6.85967,-0.00245,-0.00103,0.34204,0.00355,-0.00841,0.0,-0.00876,0.02078,0.0,0.01508,-0.03548,-0.00017,0.00041,0.00476,-0.01119,93.21
5.22,93.56453,0.00096,0.00043,35.78809,0.00012,3e-05,16.66667,0.0,0.0,6.85967,-0.00239,-0.00101,0.34204,0.00346,-0.00821,0.0,-0.00861,0.02043,0.0,0.01489,-0.03501,-0.00017,0.00041,0.00466,-0.01096,93.56
5.23,93.9231,0.00096,0.00043,35.85668,9e-05,2e-05,16.66667,0.0,0.0,6.85967,-0.00233,-0.00098,0.34204,0.00337,-0.008,0.0,-0.00847,0.02009,0.0,0.01469,-0.03455,-0.00017,0.0004,0.00456,-0.01073,93.92
5.24,94.28235,0.00096,0.00043,35.92528,7e-05,1e-05,16.66667,0.0,0.0,6.85967,-0.00227,-0.00096,0.34204,0.00329,-0.00781,0.0,-0.00832,0.01975,0.0,0.01449,-0.0341,-0.00017,0.0004,0.00447,-0.01051,94.28
5.25,94.64229,0.00096,0.00043,35.99388,5e-05,0.0,16.66667,0.0,0.0,6.85967,-0.00221,-0.00093,0.34204,0.00321,-0.00761,0.0,-0.00818,0.01941,0.0,0.0143,-0.03365,-0.00017,0.00039,0.00437,-0.01029,94.64
5.26,95.00292,0.00096,0.00043,36.06247,3e-05,-1e-05,16.66667,0.0,0.0,6.85967,-0.00216,-0.00091,0.34204,0.00312,-0.00742,0.0,-0.00804,0.01908,0.0,0.01411,-0.0332,-0.00016,0.00039,0.00428,-0.01007,95.0
5.27,95.36423,0.00096,0.00043,36.13107,1e-05,-2e-05,16.66667,0.0,0.0,6.85967,-0.00211,-0.00089,0.34204,0.00304,-0.00724,0.0,-0.0079,0.01875,0.0,0.01392,-0.03276,-0.00016,0.00038,0.00419,-0.00986,95.36
5.28,95.72622,0.00096,0.00043,36.19967,-1e-05,-3e-05,16.66667,0.0,0.0,6.85967,-0.00205,-0.00086,0.34204,0.00297,-0.00705,0.0,-0.00776,0.01843,0.0,0.01373,-0.03233,-0.00016,0.00037,0.0041,-0.00965,95.73
5.29,96.08891,0.00096,0.00043,36.26826,-3e-05,-3e-05,16.66667,0.0,0.0,6.85967,-0.002,-0.00084,0.34204,0.00289,-0.00687,0.0,-0.00763,0.01811,0.0,0.01355,-0.03189,-0.00016,0.00037,0.00401,-0.00944,96.09
5.3,96.45228,0.00096,0.00043,36.33686,-5e-05,-4e-05,16.66667,0.0,0.0,6.85967,-0.00195,-0.00082,0.34204,0.00281,-0.00669,0.0,-0.00749,0.01779,0.0,0.01337,-0.03146,-0.00016,0.00036,0.00392,-0.00924,96.45
5.31,96.81633,0.00096,0.00042,36.40546,-7e-05,-5e-05,16.66667,0.0,0.0,6.85967,-0.0019,-0.0008,0.34204,0.00274,-0.00652,0.0,-0.00736,0.01748,0.0,0.01318,-0.03104,-0.00015,0.00036,0.00383,-0.00904,96.82
5.32,97.18107,0.00096,0.00042,36.47405,-9e-05,-6e-05,16.66667,0.0,0.0,6.85967,-0.00185,-0.00077,0.34204,0.00266,-0.00635,0.0,-0.00723,0.01718,0.0,0.013,-0.03062,-0.00015,0.00036,0.00375,-0.00884,97.18
5.33,97.5465,0.00096,0.00042,36.54265,-0.00011,-7e-05,16.66667,0.0,0.0,6.85967,-0.0018,-0.00075,0.34204,0.00259,-0.00618,0.0,-0.0071,0.01687,0.0,0.01283,-0.03021,-0.00015,0.00035,0.00367,-0.00865,97.55
5.34,97.91261,0.00095,0.00042,36.61125,-0.00013,-7e-05,16.66667,0.0,0.0,6.85967,-0.00175,-0.00073,0.34204,0.00252,-0.00602,0.0,-0.00698,0.01658,0.0,0.01265,-0.02979,-0.00015,0.00035,0.00358,-0.00846,97.91
5.35,98.27941,0.00095,0.00042,36.67984,-0.00014,-8e-05,16.66667,0.0,0.0,6.85967,-0.0017,-0.00071,0.34204,0.00245,-0.00585,0.0,-0.00685,0.01628,0.0,0.01248,-0.02939,-0.00014,0.00034,0.0035,-0.00827,98.28
5.36,98.64689,0.00095,0.00042,36.74844,-0.00016,-9e-05,16.66667,0.0,0.0,6.85967,-0.00166,-0.00069,0.34204,0.00238,-0.00569,0.0,-0.00673,0.01599,0.0,0.0123,-0.02898,-0.00014,0.00034,0.00342,-0.00809,98.65
5.37,99.01506,0.00095,0.00042,36.81704,-0.00018,-9e-05,16.66667,0.0,0.0,6.85967,-0.00161,-0.00067,0.34204,0.00232,-0.00554,0.0,-0.00661,0.01571,0.0,0.01213,-0.02859,-0.00014,0.00033,0.00335,-0.0079,99.02
5.38,99.38392,0.00095,0.00042,36.88563,-0.00019,-0.0001,16.66667,0.0,0.0,6.85967,-0.00157,-0.00065,0.34204,0.00225,-0.00538,0.0,-0.00649,0.01542,0.0,0.01197,-0.02819,-0.00014,0.00033,0.00327,-0.00772,99.38
5.39,99.75346,0.00095,0.00042,36.95423,-0.00021,-0.00011,16.66667,0.0,0.0,6.85967,-0.00152,-0.00064,0.34204,0.00219,-0.00523,0.0,-0.00637,0.01515,0.0,0.0118,-0.0278,-0.00014,0.00032,0.00319,-0.00755,99.75
5.4,100.12369,0.00094,0.00042,37.02283,-0.00022,-0.00011,16.66667,0.0,0.0,6.85967,-0.00148,-0.00062,0.34204,0.00212,-0.00508,0.0,-0.00625,0.01487,0.0,0.01163,-0.02741,-0.00013,0.00032,0.00312,-0.00738,100.12
5.41,100.4946,0.00094,0.00042,37.09142,-0.00024,-0.00012,16.66667,0.0,0.0,6.85967,-0.00144,-0.0006,0.34204,0.00206,-0.00494,0.0,-0.00614,0.0146,0.0,0.01147,-0.02703,-0.00013,0.00031,0.00305,-0.00721,100.49
5.42,100.8662,0.00094,0.00041,37.16002,-0.00025,-0.00012,16.66667,0.0,0.0,6.85967,-0.00139,-0.00058,0.34204,0.002,-0.0048,0.0,-0.00602,0.01434,0.0,0.01131,-0.02665,-0.00013,0.00031,0.00297,-0.00704,100.87
5.43,101.23849,0.00094,0.00041,37.22862,-0.00026,-0.00013,16.66667,0.0,0.0,6.85967,-0.00135,-0.00056,0.34204,0.00194,-0.00465,0.0,-0.00591,0.01407,0.0,0.01115,-0.02628,-0.00013,0.0003,0.0029,-0.00687,101.24
5.44,101.61146,0.00093,0.00041,37.29721,-0.00028,-0.00014,16.66667,0.0,0.0,6.85967,-0.00131,-0.00055,0.34204,0.00188,-0.00452,0.0,-0.0058,0.01381,0.0,0.01099,-0.02591,-0.00013,0.0003,0.00283,-0.00671,101.61
5.45,101.98512,0.00093,0.00041,37.36581,-0.00029,-0.00014,16.66667,0.0,0.0,6.85967,-0.00127,-0.00053,0.34204,0.00182,-0.00438,0.0,-0.0057,0.01356,0.0,0.01083,-0.02554,-0.00013,0.0003,0.00277,-0.00655,101.99
5.46,102.35946,0.00093,0.00041,37.43441,-0.0003,-0.00015,16.66667,0.0,0.0,6.85967,-0.00124,-0.00051,0.34204,0.00177,-0.00425,0.0,-0.00559,0.01331,0.0,0.01068,-0.02518,-0.00012,0.00029,0.0027,-0.0064,102.36
5.47,102.73449,0.00092,0.00041,37.503,-0.00031,-0.00015,16.66667,0.0,0.0,6.85967,-0.0012,-0.0005,0.34204,0.00171,-0.00412,0.0,-0.00548,0.01306,0.0,0.01053,-0.02482,-0.00012,0.00029,0.00263,-0.00624,102.73
5.48,103.11021,0.00092,0.00041,37.5716,-0.00033,-0.00016,16.66667,0.0,0.0,6.85967,-0.00116,-0.00048,0.34204,0.00166,-0.00399,0.0,-0.00538,0.01281,0.0,0.01037,-0.02447,-0.00012,0.00028,0.00257,-0.00609,103.11
5.49,103.48661,0.00092,0.0004,37.6402,-0.00034,-0.00016,16.66667,0.0,0.0,6.85967,-0.00112,-0.00047,0.34204,0.0016,-0.00387,0.0,-0.00528,0.01257,0.0,0.01022,-0.02412,-0.00012,0.00028,0.0025,-0.00594,103.49
5.5,103.8637,0.00091,0.0004,37.70879,-0.00035,-0.00016,16.66667,0.0,0.0,6.85967,-0.00109,-0.00045,0.34204,0.00155,-0.00374,0.0,-0.00518,0.01234,0.0,0.01008,-0.02377,-0.00012,0.00028,0.00244,-0.0058,103.86
5.51,104.24147,0.00091,0.0004,37.77739,-0.00036,-0.00017,16.66667,0.0,0.0,6.85967,-0.00105,-0.00044,0.34204,0.0015,-0.00362,0.0,-0.00508,0.0121,0.0,0.00993,-0.02343,-0.00012,0.00027,0.00238,-0.00565,104.24
5.52,104.61993,0.00091,0.0004,37.84599,-0.00037,-0.00017,16.66667,0.0,0.0,6.85967,-0.00102,-0.00042,0.34204,0.00145,-0.0035,0.0,-0.00498,0.01187,0.0,0.00978,-0.02309,-0.00011,0.00027,0.00232,-0.00551,104.62
5.53,104.99908,0.0009,0.0004,37.91458,-0.00038,-0.00018,16.66667,0.0,0.0,6.85967,-0.00099,-0.00041,0.34204,0.0014,-0.00339,0.0,-0.00488,0.01164,0.0,0.00964,-0.02275,-0.00011,0.00026,0.00226,-0.00537,105.0
5.54,105.37891,0.0009,0.0004,37.98318,-0.00039,-0.00018,16.66667,0.0,0.0,6.85967,-0.00095,-0.00039,0.34204,0.00135,-0.00327,0.0,-0.00479,0.01142,0.0,0.0095,-0.02242,-0.00011,0.00026,0.0022,-0.00524,105.38
5.55,105.75943,0.00089,0.00039,38.05178,-0.0004,-0.00019,16.66667,0.0,0.0,6.85967,-0.00092,-0.00038,0.34204,0.0013,-0.00316,0.0,-0.00469,0.0112,0.0,0.00936,-0.02209,-0.00011,0.00026,0.00214,-0.0051,105.76
5.56,106.14063,0.00089,0.00039,38.12037,-0.00041,-0.00019,16.66667,0.0,0.0,6.85967,-0.00089,-0.00037,0.34204,0.00126,-0.00305,0.0,-0.0046,0.01098,0.0,0.00922,-0.02177,-0.00011,0.00025,0.00209,-0.00497,106.14
5.57,106.52252,0.00089,0.00039,38.18897,-0.00042,-0.00019,16.66667,0.0,0.0,6.85967,-0.00086,-0.00035,0.34204,0.00121,-0.00294,0.0,-0.00451,0.01077,0.0,0.00908,-0.02145,-0.00011,0.00025,0.00203,-0.00484,106.52
5.58,106.9051,0.00088,0.00039,38.25757,-0.00042,-0.0002,16.66667,0.0,0.0,6.85967,-0.00083,-0.00034,0.34204,0.00117,-0.00284,0.0,-0.00442,0.01055,0.0,0.00895,-0.02113,-0.0001,0.00025,0.00198,-0.00471,106.91
5.59,107.28836,0.00088,0.00039,38.32616,-0.00043,-0.0002,16.66667,0.0,0.0,6.85967,-0.0008,-0.00033,0.34204,0.00112,-0.00274,0.0,-0.00433,0.01035,0.0,0.00882,-0.02082,-0.0001,0.00024,0.00192,-0.00459,107.29
5.6,107.67231,0.00087,0.00038,38.39476,-0.00044,-0.0002,16.66667,0.0,0.0,6.85967,-0.00077,-0.00031,0.34204,0.00108,-0.00264,0.0,-0.00425,0.01014,0.0,0.00868,-0.02051,-0.0001,0.00024,0.00187,-0.00447,107.67
5.61,108.05694,0.00087,0.00038,38.46336,-0.00045,-0.00021,16.66667,0.0,0.0,6.85967,-0.00074,-0.0003,0.34204,0.00104,-0.00254,0.0,-0.00416,0.00994,0.0,0.00855,-0.0202,-0.0001,0.00023,0.00182,-0.00435,108.06
5.62,108.44226,0.00086,0.00038,38.53195,-0.00045,-0.00021,16.66667,0.0,0.0,6.85967,-0.00071,-0.00029,0.34204,0.00099,-0.00244,0.0,-0.00408,0.00974,0.0,0.00842,-0.0199,-0.0001,0.00023,0.00177,-0.00423,108.44
5.63,108.82827,0.00086,0.00038,38.60055,-0.00046,-0.00021,16.66667,0.0,0.0,6.85967,-0.00068,-0.00028,0.34204,0.00095,-0.00234,0.0,-0.00399,0.00954,0.0,0.0083,-0.0196,-0.0001,0.00023,0.00172,-0.00411,108.83
5.64,109.21496,0.00086,0.00038,38.66915,-0.00047,-0.00021,16.66667,0.0,0.0,6.85967,-0.00065,-0.00027,0.34204,0.00091,-0.00225,0.0,-0.00391,0.00935,0.0,0.00817,-0.0193,-9e-05,0.00022,0.00167,-0.004,109.21
5.65,109.60234,0.00085,0.00037,38.73774,-0.00047,-0.00022,16.66667,0.0,0.0,6.85967,-0.00063,-0.00025,0.34204,0.00088,-0.00216,0.0,-0.00383,0.00916,0.0,0.00804,-0.01901,-9e-05,0.00022,0.00162,-0.00388,109.6
5.66,109.9904,0.00085,0.00037,38.80634,-0.00048,-0.00022,16.66667,0.0,0.0,6.85967,-0.0006,-0.00024,0.34204,0.00084,-0.00207,0.0,-0.00375,0.00897,0.0,0.00792,-0.01872,-9e-05,0.00022,0.00158,-0.00377,109.99
5.67,110.37915,0.00084,0.00037,38.87494,-0.00048,-0.00022,16.66667,0.0,0.0,6.85967,-0.00058,-0.00023,0.34204,0.0008,-0.00198,0.0,-0.00367,0.00879,0.0,0.0078,-0.01843,-9e-05,0.00021,0.00153,-0.00367,110.38
5.68,110.76858,0.00084,0.00037,38.94353,-0.00049,-0.00022,16.66667,0.0,0.0,6.85967,-0.00055,-0.00022,0.34204,0.00076,-0.0019,0.0,-0.0036,0.00861,0.0,0.00768,-0.01815,-9e-05,0.00021,0.00148,-0.00356,110.77
5.69,111.1587,0.00083,0.00036,39.01213,-0.0005,-0.00023,16.66667,0.0,0.0,6.85967,-0.00053,-0.00021,0.34204,0.00073,-0.00181,0.0,-0.00352,0.00843,0.0,0.00756,-0.01787,-9e-05,0.00021,0.00144,-0.00346,111.16
5.7,111.54951,0.00083,0.00036,39.08073,-0.0005,-0.00023,16.66667,0.0,0.0,6.85967,-0.0005,-0.0002,0.34204,0.00069,-0.00173,0.0,-0.00345,0.00825,0.0,0.00744,-0.0176,-9e-05,0.0002,0.0014,-0.00335,111.55
5.71,111.94101,0.00082,0.00036,39.14932,-0.00051,-0.00023,16.66667,0.0,0.0,6.85967,-0.00048,-0.00019,0.34204,0.00066,-0.00165,0.0,-0.00337,0.00808,0.0,0.00733,-0.01733,-8e-05,0.0002,0.00135,-0.00325,111.94
5.72,112.33318,0.00082,0.00036,39.21792,-0.00051,-0.00023,16.66667,0.0,0.0,6.85967,-0.00046,-0.00018,0.34204,0.00063,-0.00157,0.0,-0.0033,0.00791,0.0,0.00721,-0.01706,-8e-05,0.0002,0.00131,-0.00316,112.33
5.73,112.72605,0.00081,0.00036,39.28652,-0.00051,-0.00023,16.66667,0.0,0.0,6.85967,-0.00043,-0.00017,0.34204,0.00059,-0.00149,0.0,-0.00323,0.00774,0.0,0.0071,-0.01679,-8e-05,0.00019,0.00127,-0.00306,112.73
5.74,113.1196,0.00081,0.00035,39.35511,-0.00052,-0.00023,16.66667,0.0,0.0,6.85967,-0.00041,-0.00016,0.34204,0.00056,-0.00142,0.0,-0.00316,0.00758,0.0,0.00699,-0.01653,-8e-05,0.00019,0.00123,-0.00296,113.12
5.75,113.51384,0.0008,0.00035,39.42371,-0.00052,-0.00024,16.66667,0.0,0.0,6.85967,-0.00039,-0.00015,0.34204,0.00053,-0.00134,0.0,-0.00309,0.00741,0.0,0.00688,-0.01627,-8e-05,0.00019,0.00119,-0.00287,113.51
5.76,113.90876,0.0008,0.00035,39.49231,-0.00053,-0.00024,16.66667,0.0,0.0,6.85967,-0.00037,-0.00014,0.34204,0.0005,-0.00127,0.0,-0.00303,0.00725,0.0,0.00677,-0.01601,-8e-05,0.00019,0.00115,-0.00278,113.91
5.77,114.30437,0.00079,0.00035,39.5609,-0.00053,-0.00024,16.66667,0.0,0.0,6.85967,-0.00035,-0.00014,0.34204,0.00047,-0.0012,0.0,-0.00296,0.0071,0.0,0.00666,-0.01576,-8e-05,0.00018,0.00111,-0.00269,114.3
5.78,114.70066,0.00078,0.00034,39.6295,-0.00053,-0.00024,16.66667,0.0,0.0,6.85967,-0.00033,-0.00013,0.34204,0.00044,-0.00113,0.0,-0.00289,0.00694,0.0,0.00655,-0.01551,-8e-05,0.00018,0.00108,-0.0026,114.7
5.79,115.09765,0.00078,0.00034,39.6981,-0.00054,-0.00024,16.66667,0.0,0.0,6.85967,-0.00031,-0.00012,0.34204,0.00041,-0.00106,0.0,-0.00283,0.00679,0.0,0.00645,-0.01526,-7e-05,0.00018,0.00104,-0.00252,115.1
5.8,115.49531,0.00077,0.00034,39.76669,-0.00054,-0.00024,16.66667,0.0,0.0,6.85967,-0.00029,-0.00011,0.34204,0.00038,-0.001,0.0,-0.00277,0.00664,0.0,0.00634,-0.01502,-7e-05,0.00017,0.001,-0.00243,115.5
5.81,115.89367,0.00077,0.00034,39.83529,-0.00054,-0.00024,16.66667,0.0,0.0,6.85967,-0.00027,-0.0001,0.34204,0.00035,-0.00093,0.0,-0.0027,0.00649,0.0,0.00624,-0.01478,-7e-05,0.00017,0.00097,-0.00235,115.89
5.82,116.2927,0.00076,0.00033,39.90389,-0.00054,-0.00024,16.66667,0.0,0.0,6.85967,-0.00025,-0.0001,0.34204,0.00033,-0.00087,0.0,-0.00264,0.00634,0.0,0.00614,-0.01454,-7e-05,0.00017,0.00093,-0.00227,116.29
5.83,116.69243,0.00076,0.00033,39.97248,-0.00055,-0.00024,16.66667,0.0,0.0,6.85967,-0.00023,-9e-05,0.34204,0.0003,-0.00081,0.0,-0.00258,0.0062,0.0,0.00604,-0.0143,-7e-05,0.00017,0.0009,-0.00219,116.69
5.84,117.09284,0.00075,0.00033,40.04108,-0.00055,-0.00025,16.66667,0.0,0.0,6.85967,-0.00022,-8e-05,0.34204,0.00028,-0.00075,0.0,-0.00252,0.00606,0.0,0.00594,-0.01407,-7e-05,0.00016,0.00087,-0.00211,117.09
5.85,117.49394,0.00075,0.00033,40.10968,-0.00055,-0.00025,16.66667,0.0,0.0,6.85967,-0.0002,-7e-05,0.34204,0.00025,-0.00069,0.0,-0.00246,0.00592,0.0,0.00584,-0.01384,-7e-05,0.00016,0.00083,-0.00203,117.49
5.86,117.89572,0.00074,0.00032,40.17827,-0.00055,-0.00025,16.66667,0.0,0.0,6.85967,-0.00018,-7e-05,0.34204,0.00023,-0.00063,0.0,-0.00241,0.00579,0.0,0.00575,-0.01361,-7e-05,0.00016,0.0008,-0.00196,117.9
